index,servo,motor,gimbal,acc_x,acc_y,acc_z,gyro_x,gyro_y,gyro_z
0,0,0,0,2,-26,-3944,14,-81,-148
1,17000,-1,2690,-44,-56,-3916,-70,-48,-7
2,17000,-1,2689,6,-42,-3950,-83,144,-107
3,17000,0,2690,36,-130,-3896,-60,120,-181
4,17000,0,2690,-22,-26,-3942,52,-91,-160
5,17011,0,2689,30,-96,-3954,-15,34,28
6,17023,0,2690,14,-82,-4008,-81,150,-61
7,17023,0,2689,-14,56,-3944,59,78,-125
8,17011,0,2689,-56,-4,-3872,-44,-20,-51
9,17011,0,2691,74,-78,-4038,-28,-59,79
10,17023,1,2690,-26,-26,-3994,-15,-192,-1
11,17023,-1,2690,-4,14,-3898,17,8,58
12,17023,1,2692,-26,12,-3940,-47,-33,158
13,17011,0,2690,-18,-32,-3976,68,113,158
14,17011,0,2691,-54,72,-3884,62,170,11
15,17023,0,2690,84,-152,-3898,4,269,-63
16,17023,0,2690,-36,10,-3954,37,-71,-10
17,17011,1,2691,22,-26,-3978,-15,71,-16
18,17011,0,2690,4,54,-3910,75,-287,-249
19,17011,0,2690,36,-138,-3984,-267,434,344
20,17035,0,2691,-34,-4,-3898,-54,126,-175
21,17035,1,2690,-24,14,-4062,-28,52,-131
22,17047,0,2690,-30,10,-4000,33,34,-281
23,17047,0,2690,12,-198,-3988,17,135,-122
24,17047,0,2689,-74,66,-3890,11,84,-45
25,17035,0,2690,56,-142,-3896,-86,-21,-57
26,17035,0,2690,-14,-82,-3976,37,27,-31
27,17035,0,2688,-56,66,-3936,-22,-12,-10
28,17035,0,2690,10,-8,-3952,-45,-141,164
29,17047,0,2690,-24,18,-3972,74,-69,-78
30,17047,0,2690,-34,-70,-3900,-44,126,238
31,17035,0,2689,34,-124,-3992,-41,208,182
32,17035,0,2691,-8,4,-4006,-15,97,-240
33,17035,0,2689,-32,-78,-3930,-3,138,-95
34,17047,0,2689,64,-118,-3956,104,-272,14
35,17047,0,2691,28,-144,-3832,123,-78,49
36,17047,0,2689,138,-38,-4132,-109,63,37
37,17047,0,2689,8,36,-3976,-6,-53,217
38,17035,1,2690,-34,-138,-3876,3,-329,-61
39,17047,0,2690,-70,-72,-3872,-93,-30,-213
40,17047,0,2689,12,-44,-3872,-32,326,49
41,17047,0,2690,2,42,-3956,-86,205,-313
42,17047,0,2691,-16,32,-3958,124,196,-66
43,17035,0,2690,28,64,-3936,-28,43,-134
44,17035,0,2689,16,-170,-3934,-60,-157,-84
45,17023,0,2689,-30,6,-3936,-96,147,-4
46,17000,0,2691,42,-142,-3980,-96,5,-19
47,17000,0,2690,14,-60,-3904,-51,-128,67
48,16976,0,2689,-74,-12,-3902,7,-161,191
49,16976,0,2689,-50,-48,-3856,-35,126,28
50,16976,0,2689,-20,-12,-3922,-15,30,11
51,16976,0,2689,48,-122,-3930,140,-55,-22
52,16976,0,2690,-2,72,-3986,104,221,244
53,16976,0,2690,-26,-62,-3808,133,-84,43
54,16976,0,2689,72,-156,-3946,-19,24,146
55,16976,1,2691,2,-38,-4028,-25,8,-28
56,16976,0,2689,-40,46,-4032,-8,-93,111
57,16964,0,2689,-14,-44,-3936,-76,-62,31
58,16976,4,2690,-76,308,-4392,-54,170,-125
59,16976,156,2690,430,280,-4014,-38,227,-163
60,16976,245,2690,-30,-410,-3868,-112,-1,-257
61,16976,344,2690,196,264,-3686,-38,-316,-172
62,16976,437,2691,40,-178,-4032,117,-49,-479
63,16976,560,2691,202,56,-3774,52,491,-384
64,16976,440,2689,-30,984,-3574,-158,-21,79
65,16964,273,2692,-104,3258,-4178,-526,84,217
66,16964,192,2690,244,1046,-2550,298,62,76
67,16976,174,2691,32,2818,-5580,892,-328,-172
68,16976,613,2690,-1148,3880,-6530,-639,-929,208
69,16976,686,2688,-2108,2550,-3204,-271,-596,67
70,16976,664,2688,-848,4340,-5894,4,179,37
71,16976,772,2688,1280,2546,-4564,-116,-325,-204
72,17000,653,2690,-14,2702,-5900,204,-348,105
73,17000,841,2689,-1984,5760,-6638,-322,-151,-148
74,17000,836,2688,-224,2660,-3442,-128,211,-10
75,17000,864,2688,-730,-66,-3462,466,-30,143
76,17000,910,2689,-906,3748,-5638,-44,-93,-163
77,17000,987,2690,-32,122,-1782,188,260,-263
78,17023,943,2688,-216,28,-3560,201,66,-514
79,16988,916,2688,562,816,-4148,-3,332,17
80,16988,887,2690,-304,-634,-3168,52,17,-514
81,17000,751,2691,-314,542,-3790,53,199,388
82,17000,856,2690,38,-1270,-3762,7,-557,-281
83,17000,785,2690,676,-486,-4052,-70,-42,-87
84,17000,793,2690,-230,-104,-4094,30,322,-414
85,17000,903,2689,320,-320,-5270,-3,157,550
86,16988,975,2690,-370,-250,-3662,-12,18,87
87,16988,1120,2691,-550,300,-3448,-187,259,67
88,16988,972,2690,392,534,-3560,-83,151,23
89,16988,1008,2689,596,-1090,-4144,237,-468,-685
90,16988,1001,2691,374,-206,-3484,-50,107,-201
91,17000,988,2689,-132,-486,-3138,-9,255,-231
92,17000,1039,2690,-290,1770,-4622,-119,142,-48
93,17000,1185,2688,404,-112,-4798,253,-37,-128
94,17000,887,2689,494,496,-5952,130,-404,-228
95,16988,987,2690,-64,290,-3978,-393,-211,-257
96,16988,1003,2690,1196,2392,-4280,-435,-671,-25
97,17000,1033,2689,-1162,194,-5184,59,-477,58
98,17000,1080,2688,-180,3072,-4582,-235,-304,-393
99,17000,1176,2689,-184,3242,-6714,-63,-134,-750
100,17047,1192,2688,968,1416,-5050,788,176,-617
101,17047,1291,2689,-246,1398,-96,265,-510,-962
102,17047,1423,2689,894,-684,-6256,404,252,-131
103,17047,1486,2689,564,398,1332,463,-306,-773
104,17047,1564,2687,-98,1884,390,-467,154,123
105,17047,1742,2687,-644,566,-1226,-364,-116,-143
106,17047,1940,2690,944,692,-4952,75,-408,-148
107,17047,1580,2689,-1162,550,-28,-299,653,214
108,17047,1743,2688,1582,-1844,-4016,-209,-262,918
109,17047,1865,2690,830,1032,-4002,863,361,-51
110,17047,1848,2689,996,1660,-2078,433,-30,-334
111,17035,1811,2689,-1212,1426,-2942,369,281,-361
112,17047,1838,2691,-406,-1012,-4144,207,88,-897
113,17047,1806,2688,1138,-628,-5118,-319,-465,-773
114,17047,1817,2689,688,1920,-3658,-319,-202,-278
115,17047,1952,2691,-2098,304,-3082,123,-468,-325
116,17035,1660,2690,-86,754,-4004,-21,342,-213
117,17035,1734,2691,-280,-1080,-2432,579,250,-428
118,17035,1642,2690,-1306,64,-5788,-73,295,-311
119,17035,1780,2688,-166,1074,-6120,-316,62,87
120,17035,1673,2692,-428,-1216,-3574,-19,-151,-54
121,17011,1679,2690,668,264,-4834,140,-132,-582
122,17011,1672,2690,948,-466,-3714,127,-151,497
123,17023,1542,2691,608,718,-6064,-170,114,-145
124,17047,1750,2689,-426,1250,-3600,-145,-53,-263
125,17047,1691,2688,180,642,-5484,27,-30,28
126,17035,1839,2689,286,592,-3092,120,-523,662
127,17035,1779,2690,156,-156,-3782,472,-602,-1934
128,17011,1616,2689,-920,-1466,-3316,-32,-885,-764
129,17011,1630,2689,-20,1516,-4228,-341,345,196
130,16988,1731,2688,1218,596,-3550,-77,-354,235
131,16988,1813,2690,-226,-12,-3970,353,475,-455
132,16988,1663,2691,200,-416,-4892,304,249,-508
133,16976,1577,2688,-854,-708,-3068,-158,-401,-558
134,16976,1876,2689,-1122,-1734,-2260,-102,914,-199
135,16976,1711,2689,448,564,-2716,-34,-499,-337
136,16976,1572,2688,92,-1210,-4958,275,338,-856
137,16964,1764,2689,-196,-1198,-3706,-177,30,447
138,16964,1847,2690,-576,386,-6672,-445,554,494
139,16964,1703,2690,-72,204,-4502,-455,452,-1003
140,16964,1631,2690,-440,-1174,-2276,-38,14,-691
141,16964,1707,2691,574,670,-6484,-225,-484,-1283
142,16976,1761,2690,274,598,-5432,-154,653,164
143,16988,1859,2691,-208,-1770,-778,-193,-716,-1354
144,16988,1719,2688,-278,-74,-2814,-128,62,-431
145,16988,1852,2690,-1110,-1006,-2420,188,243,188
146,16988,1873,2690,754,2612,-4452,-93,509,-552
147,17000,1806,2688,-1282,446,-1052,-299,475,715
148,17000,1891,2689,1362,1040,-3646,-380,-100,-761
149,17000,1691,2689,-942,-1338,-1402,68,-116,-122
150,17000,1894,2690,700,-232,-4144,227,100,-48
151,17000,1810,2690,734,190,-7264,46,560,132
152,16976,1803,2690,-582,3948,-2512,-258,335,-897
153,16976,1840,2688,-2144,48,848,240,402,-36
154,16964,1868,2691,1264,-540,-4746,98,190,-853
155,16964,1840,2689,-862,796,-570,17,-313,-868
156,17000,1919,2690,-1148,5178,-4306,30,-11,249
157,16988,1873,2690,-350,3532,-3744,-48,-834,550
158,16988,1965,2690,1366,518,-4652,343,141,-417
159,17000,2120,2689,818,266,-4678,533,-110,-287
160,17000,1769,2689,764,1032,-6350,430,43,-16
161,16988,1997,2688,1434,1376,-2752,-161,-567,55
162,16988,2008,2690,-92,1256,-3624,156,-382,497
163,16988,2132,2690,-64,1174,-3806,-445,15,1399
164,17011,1681,2688,988,552,-3780,-215,-156,-965
165,17011,2116,2689,-206,-178,-6298,236,621,-257
166,17023,2086,2690,572,20,-5722,-83,303,185
167,17023,1887,2690,448,-68,-4368,-315,-102,-210
168,17011,2026,2688,464,-2208,-1828,-44,-204,-207
169,17011,1945,2690,-268,578,-2838,262,414,-1678
170,17047,1995,2691,60,-152,-3706,-93,-113,-759
171,17035,1944,2690,404,1792,-3954,65,-284,-602
172,17035,1961,2689,1678,-658,-4936,-225,-56,1414
173,17047,1973,2689,-2038,788,-3788,-193,398,61
174,17047,1856,2690,-174,-1614,-4132,10,205,-685
175,17035,1976,2689,-110,-84,-3728,-109,-75,-199
176,17035,1844,2689,-460,242,-3862,233,433,-803
177,17035,1937,2690,934,-944,-4146,-199,109,-467
178,17023,1870,2689,624,1278,-6428,107,231,-1292
179,17023,2121,2687,-516,-1194,-3158,27,-5,238
180,17047,1826,2690,-896,-728,-1484,-587,-116,-856
181,17047,1904,2692,790,1548,-6138,-35,240,161
182,17047,2004,2688,1112,-494,-9156,7,-506,-281
183,17047,1958,2690,676,-2898,-3812,-63,-137,-201
184,17047,2100,2690,-918,-66,-3506,-277,-479,329
185,17035,1929,2689,940,760,-5166,-429,-732,-84
186,17035,2154,2689,962,490,-2972,192,-93,-481
187,17047,1881,2691,34,-342,-4144,14,-916,-393
188,17047,2128,2690,222,-480,-6372,-135,113,-393
189,17047,1775,2689,2244,-348,-4692,37,231,285
190,16988,2014,2690,558,2502,-5052,-528,94,-679
191,16988,2116,2689,82,-236,-3096,275,338,-393
192,16988,2166,2689,94,2524,-3748,537,795,-237
193,16988,1782,2690,-334,1668,-4972,-332,5,-151
194,16988,2025,2691,1006,600,-3002,-267,17,-63
195,16988,2005,2689,698,378,-6604,-122,-376,-697
196,17023,2292,2689,-852,-1032,-2300,-393,338,-110
197,17035,1886,2689,-108,116,-240,253,-68,-461
198,17035,2256,2688,680,4088,-6390,-987,-297,-567
199,17000,1983,2689,628,978,-3120,-487,440,-431
200,17000,2342,2689,2116,152,-9582,14,-55,167
201,16988,2074,2689,2376,3010,-6702,-342,145,-293
202,17023,2223,2689,102,-1366,-2636,-174,436,-1003
203,17023,2375,2688,756,2222,-870,-151,-896,229
204,16988,2308,2688,-2066,-1548,2712,891,620,-706
205,16988,2430,2688,840,3916,-5148,-413,-100,196
206,16988,2444,2689,122,2054,-2884,81,-716,-140
207,16988,2385,2689,-754,704,-7446,-535,606,-440
208,16988,2480,2689,1924,-2024,-2708,66,-131,-437
209,16988,2482,2687,1252,300,-5504,253,-427,-431
210,16988,2458,2688,-576,170,-5112,391,621,-1787
211,16988,2441,2691,716,712,-5904,336,-382,-10
212,16988,2433,2689,-1404,320,-7282,-251,803,140
213,16988,2239,2688,534,428,-4808,-361,186,-543
214,16988,2441,2689,-102,-990,-6410,479,710,-1531
215,17000,2267,2689,-108,-318,32,33,1049,-434
216,17011,2512,2689,-436,-1192,-2544,343,-49,686
217,17011,2576,2690,-402,104,-2638,-96,-296,-148
218,17047,2374,2688,-476,-1902,-3470,-416,281,515
219,17047,2437,2688,-950,1668,-568,-83,-373,-974
220,17107,2511,2691,-100,1824,-6660,275,-589,-670
221,17107,2354,2690,1808,1402,-3304,205,777,-249
222,17119,2686,2690,-656,288,-4496,-90,-43,-355
223,17011,2003,2689,82,142,-4890,418,469,-2282
224,17011,2473,2690,-308,-672,-3530,159,440,-1755
225,16976,2461,2691,702,1342,-3540,-189,272,-222
226,16976,2375,2689,492,-1812,-3290,17,-455,-346
227,16916,2386,2690,-696,850,-4180,-83,-1202,-2418
228,16916,2499,2692,-332,-604,1072,353,-94,-1430
229,16916,2474,2690,416,1448,-5128,43,-268,-92
230,15864,2222,2690,674,1188,-1882,482,-218,-1416
231,15864,2404,2689,276,-1328,-5150,-425,-1231,-449
232,15577,2260,2690,-1010,340,-6044,336,328,-2286
233,15577,2199,2689,-2162,-540,-4216,94,8,1343
234,15254,2672,2689,-2842,292,-4470,340,377,-912
235,15062,2383,2689,-968,478,-1622,507,496,883
236,15062,2133,2690,-652,-1500,-3648,501,37,768
237,14572,2369,2690,-774,430,-3596,146,43,1081
238,14572,2378,2689,-1484,-608,-3196,501,-392,137
239,14297,2336,2690,-470,-1636,-7534,91,577,1337
240,14297,2402,2690,-992,-640,-114,211,-478,1101
241,14166,2705,2691,304,-1182,-4648,391,-866,1086
242,14142,2392,2689,-2866,-1734,-4160,-158,135,2687
243,14142,2281,2689,-2614,-936,1376,94,316,3427
244,14130,2313,2688,-1982,42,-4298,-102,84,1470
245,14130,2251,2688,-1584,1182,-2108,294,-135,2696
246,14130,2610,2690,-2252,-1772,-2340,2074,1110,2489
247,14130,2235,2690,72,2516,-6930,43,481,1661
248,14285,2225,2689,-2858,2392,564,-68,-596,2365
249,14321,2432,2690,2106,-8,-5782,169,46,1726
250,14321,2268,2689,-2062,556,-1486,56,205,1971
251,14010,2331,2692,-220,-1908,-2254,847,-160,3819
252,14010,2233,2690,-2572,-330,-2008,-174,-465,2937
253,13532,2630,2689,1500,3738,-8550,-913,665,2875
254,13532,2241,2689,-2176,-254,-1124,1144,-259,1950
255,13066,2376,2690,-1408,1046,-8746,-28,36,2112
256,12910,2401,2689,-3108,-868,-1034,-1339,-570,4647
257,12910,2397,2688,-1032,3460,-3886,253,659,3374
258,13030,2432,2689,-2072,3204,-5728,-309,255,3721
259,13030,2516,2688,-2758,-1364,-1700,69,-532,3141
260,13305,2443,2689,1888,-1264,-4464,66,75,2133
261,14070,2511,2689,-1410,-336,-2090,463,-919,4202
262,14070,2340,2689,-5930,-166,-4972,-390,-490,5154
263,14931,2523,2689,658,-1950,-6242,870,2225,-850
264,14931,2479,2688,154,-1920,-7798,124,-440,4340
265,15708,2438,2689,-3922,108,-966,-241,145,3568
266,15708,2309,2691,2468,-728,-6880,420,1669,5728
267,16270,2519,2687,5424,1412,-6620,385,186,3318
268,16270,2343,2691,142,-644,-2316,-225,-497,1529
269,16270,2348,2695,126,-1906,-4138,207,363,1390
270,16964,2568,2690,-816,1252,-2164,204,-650,1499
271,16964,2080,2688,1814,-1714,-4130,-38,300,547
272,16964,2346,2689,754,274,-1992,1092,116,-104
273,16964,2547,2690,-2722,938,-2500,-496,-396,3008
274,16976,2443,2691,-512,1444,-6934,256,1253,2445
275,16976,2509,2689,674,-3434,-4416,456,176,2212
276,16976,2558,2690,1050,-1258,-4162,172,274,848
277,16964,2351,2689,44,-1530,-4224,-390,-129,93
278,16964,2020,2691,-66,-1746,-1398,-480,484,2050
279,16976,2639,2689,-368,1794,-5136,-2,170,1204
280,16976,2134,2691,1346,-1844,-7144,-19,716,164
281,16964,2408,2690,-926,-828,-4868,153,-166,-175
282,16976,2680,2689,886,2174,-3850,492,-715,-985
283,16976,2455,2690,-724,940,-1946,-258,-183,-697
284,16988,2282,2690,906,-1312,-4810,250,-640,52
285,16988,2450,2691,-68,-1318,-5256,572,548,137
286,16988,2512,2690,-1188,352,-1494,72,-52,55
287,16988,2442,2691,-356,-1182,-6910,107,703,149
288,17119,2408,2690,-496,-1836,-3112,-219,-250,627
289,17215,2374,2690,-224,628,-3126,-283,455,977
290,17215,2514,2691,646,-988,-2740,191,-533,-226
291,17358,2295,2689,-580,666,-1714,282,-121,-1696
292,17358,2662,2691,-638,300,-2862,-147,218,453
293,17980,2083,2690,-876,-2048,-4000,240,-246,512
294,18506,2425,2689,2026,1314,-4806,98,84,-423
295,18506,2241,2689,882,1526,-1512,269,503,-1230
296,18984,2423,2689,2440,-342,-3454,36,1450,-708
297,18984,2633,2690,2176,574,732,-148,-1876,518
298,19307,2282,2690,2364,42,-7582,265,846,-1881
299,19307,2486,2691,2196,-2338,-4604,-205,27,-252
300,19403,2590,2690,1900,-678,-4352,-590,-49,-1878
301,19367,2250,2691,1260,3688,-6126,-367,-567,-1970
302,19367,2493,2689,782,-296,-3162,-367,-243,-2798
303,19367,2068,2689,1350,-1304,-3326,-106,-30,-2633
304,19367,2452,2691,180,272,-4292,134,-163,-2889
305,19331,2305,2689,1500,-1714,-4676,-38,-18,-2061
306,19331,2343,2689,1384,260,-5630,88,8,-4858
307,19415,2408,2690,694,-1202,-3348,62,605,-378
308,19690,2253,2689,2282,-2052,-3544,-283,167,-1148
309,19690,2398,2691,1122,350,-4278,-80,843,-1982
310,19917,2293,2691,1402,-374,-5818,-193,838,-2394
311,19917,2418,2690,-184,1646,-2704,-96,152,-1946
312,20060,2421,2690,2344,-882,-5424,176,383,-2403
313,20060,2250,2690,24,446,-3096,7,55,-3081
314,20180,2206,2690,4576,-1700,-5382,-135,-551,-2424
315,20192,2358,2689,60,-1198,2016,104,-412,-2922
316,20192,2330,2689,3108,436,-7860,-548,-2,-1988
317,20060,2249,2689,976,132,-3562,-474,846,-3726
318,20060,2336,2691,1254,318,-7204,-15,33,-552
319,19785,2369,2689,-292,2526,-3000,-89,63,-2400
320,18853,2253,2689,2428,-1270,-3306,-267,-361,-2335
321,18853,2444,2691,1172,1660,-7610,66,91,-2792
322,17155,2317,2691,2338,1128,-5342,75,542,-2948
323,17155,2417,2689,112,-1236,-1154,33,-602,-2589
324,17035,2398,2690,5120,1858,-476,140,303,-3367
325,17035,2541,2690,-3054,1058,-1084,-561,-573,-1071
326,17047,2310,2691,1154,-1058,-4298,14,735,-1410
327,17011,2160,2687,288,3092,-4374,-45,-1190,-364
328,17011,2393,2688,-684,-200,-6518,314,1246,-3812
329,16988,2374,2690,-58,4034,-8660,-251,411,202
330,16988,2393,2689,-1628,4880,-652,-135,-265,164
331,16976,2475,2688,72,794,-4972,152,926,-225
332,16976,2407,2690,652,452,-7986,-9,-491,373
333,16760,2479,2689,840,862,-5482,259,516,-284
334,16186,2359,2689,-1922,-2054,-2426,169,392,650
335,16186,2782,2689,2968,-1874,-4058,-264,30,-1056
336,15696,2313,2689,-2144,-1446,-1770,353,342,123
337,15696,2559,2689,2884,1342,-5056,-190,376,255
338,15218,2590,2690,76,1878,-6944,895,-415,-2247
339,15218,2449,2688,-2198,2844,-5898,446,-8,-420
340,15027,2684,2690,-2634,1904,-4042,-681,-307,1095
341,14524,2635,2686,-2604,900,-3834,450,996,1590
342,14524,2614,2690,730,1384,-4922,-522,424,1151
343,13771,2578,2690,858,618,-188,388,-5,1750
344,13771,2480,2689,-3936,-420,-5000,278,-481,677
345,12779,2629,2689,-5566,196,-2676,433,55,1720
346,12779,2628,2686,-3078,-1438,-2166,-306,-1452,5195
347,12145,2446,2687,-2208,-1576,-4948,-77,-377,3250
348,11894,2548,2689,-328,-456,-3248,459,-436,3055
349,11894,2720,2689,-152,-12,-6380,-448,37,3789
350,11882,2400,2689,-4640,-1926,-3564,56,11,3998
351,11882,2592,2689,-1460,200,-3264,-293,-26,3300
352,11726,2667,2689,-2222,-18,-1858,-170,142,4750
353,11547,2418,2690,-2162,-1194,-5790,-96,916,3718
354,11547,2520,2689,-2636,-2418,-3302,979,110,2027
355,11212,2623,2689,-752,654,-6658,-25,745,4620
356,11212,2478,2688,-2544,2372,-2464,401,-1358,4582
357,11081,2510,2690,-4686,-460,-784,688,-288,3963
358,11081,2400,2689,-4592,292,-2904,53,-300,4172
359,10949,2592,2687,-2088,388,-6210,798,627,1971
360,10758,2245,2689,-1776,-1194,724,-51,897,6409
361,10758,2536,2690,-3058,-1596,-3974,-252,-437,5301
362,10614,2382,2691,-4278,-2540,-3554,-93,760,5286
363,10614,2509,2689,-2102,-1996,-3576,153,-93,6766
364,10500,2491,2690,-3508,1990,-5572,-380,-290,6439
365,10500,2396,2690,-2684,-1458,-4430,-3,-377,6656
366,10500,2415,2690,-1162,110,-4768,-128,-198,6607
367,10500,2361,2689,-3854,-1034,-1386,-109,-138,4473
368,10500,2452,2689,-4100,86,-6194,39,-2,6150
369,10500,2466,2689,-156,-1328,-7914,-67,948,6026
370,10500,2482,2690,-746,42,-2954,217,-157,5342
371,10500,2521,2690,-4940,2684,-3280,101,-774,6557
372,10500,2534,2690,-1158,-2404,-340,282,561,6132
373,10500,2452,2690,-5386,-2048,-5356,-64,-488,6224
374,10937,2772,2689,-2046,-3178,-4494,-580,-751,6781
375,10937,2345,2690,-2304,-1658,-5060,-251,-623,6330
376,11655,2187,2690,-5970,-1028,-1790,-438,-160,5006
377,11655,2469,2690,-3598,-424,-5318,-154,-967,5723
378,12504,2411,2689,-394,-1684,-4592,114,960,5997
379,13795,2647,2689,-1874,-3198,-5686,201,443,5227
380,13795,2182,2691,-4492,-294,-8286,-60,186,6291
381,15134,2560,2688,488,1974,2276,-283,1837,5233
382,15134,2484,2688,3196,-964,-1920,136,-1425,2628
383,16892,2110,2691,-2010,970,-3336,36,-504,3323
384,16892,2391,2695,5882,34,-4484,433,901,2224
385,17155,2319,2690,1492,614,-736,240,-43,1057
386,17597,2337,2691,14,1080,-3748,-367,758,-48
387,17597,2313,2690,2276,-2778,-5828,320,1151,-84
388,18195,2421,2689,-1294,872,-5124,250,-970,-1083
389,18195,2264,2690,-300,-1766,-1204,-319,487,582
390,19176,2392,2689,194,-1314,-2340,895,-485,-1262
391,19176,2396,2689,-356,1040,-4724,-241,881,-372
392,20646,2248,2690,1542,-1438,-3982,514,1030,-2601
393,21962,2321,2689,6008,-2136,-7346,-190,274,-2026
394,21962,2275,2690,1182,-1046,-4994,-306,313,-3081
395,22799,2306,2692,3812,-364,-5244,-190,382,-3538
396,22799,2143,2690,2834,-524,-5056,-338,-1106,-3859
397,23062,2167,2690,-866,108,-4100,-83,-1142,-5350
398,23062,2098,2691,4766,-114,-6138,-804,-526,-3804
399,23500,2039,2690,-4136,-748,-808,81,-560,-4068
400,23500,1992,2689,2276,-110,-3316,734,2888,-3458
401,23500,2155,2687,6722,-1378,-2846,-32,-549,-4806
402,23500,2287,2689,-1332,-2046,-6176,834,2178,-4740
403,23500,2127,2691,6602,-1194,-7132,114,779,-4664
404,23500,2267,2688,104,-2050,-6628,-193,-573,-6618
405,23500,2109,2689,2118,-792,-3320,140,490,-5592
406,23500,2106,2690,1172,-1606,-6484,7,-688,-4997
407,23500,2301,2690,194,-2128,-3016,366,154,-4572
408,23500,2050,2691,2330,1428,-6766,427,109,-3143
409,23500,2056,2689,2382,-1564,-4158,743,103,-5056
410,23500,2069,2689,3640,-1360,-6302,656,-446,-6270
411,23500,1933,2690,-372,-302,-2426,217,-739,-5088
412,23500,2084,2691,710,-764,-1142,-74,-605,-5607
413,23500,2104,2691,1620,1990,-2768,-464,-281,-5380
414,23500,2078,2689,3848,-2382,-4554,-38,59,-4838
415,23500,2133,2689,1112,-2862,-6476,521,-328,-4761
416,23500,2001,2692,3036,-2560,-2190,630,551,-5669
417,23500,2019,2692,2936,-1846,-4604,455,-75,-5136
418,23500,2017,2691,2016,-2700,-4238,333,-980,-5533
419,23500,2098,2690,2456,-46,-4728,-83,30,-5132
420,23500,2065,2690,1188,548,-4400,178,-224,-5442
421,23500,2083,2689,1292,1924,-5178,233,189,-4917
422,23500,1998,2689,1470,554,-4326,-73,-268,-1542
423,23193,1740,2690,646,1670,-2350,346,-373,-5377
424,23193,2071,2690,2620,-194,-3026,-19,-888,-5521
425,20706,1947,2691,2668,1230,-4078,152,-348,-5630
426,18542,2032,2690,906,240,-3262,311,300,-5624
427,18542,1988,2688,4092,-966,-2000,162,-56,-5451
428,17502,2065,2690,7418,-3188,-3376,230,1012,-6067
429,17502,1957,2692,-2024,824,-4566,276,-2126,-7007
430,17322,2044,2690,-4002,444,-9038,-251,160,-3700
431,17322,2071,2687,-1018,948,-5138,27,440,-2291
432,17322,1995,2685,-1052,-22,-3796,117,186,-1708
433,17167,2023,2687,-1326,1000,-5816,-471,643,1561
434,17167,2079,2689,216,-1180,-1556,469,443,459
435,16964,2023,2689,306,1596,-6696,265,-392,-290
436,16964,2084,2687,-16,2554,-4592,-212,-605,-735
437,15935,2049,2690,1186,-140,-2912,191,94,-1265
438,14465,2099,2689,-3440,1228,1344,498,-1155,341
439,14465,2177,2690,-740,154,-4110,-112,-742,-832
440,13054,2132,2688,-2238,3608,-2520,72,-643,709
441,13054,2219,2688,-82,-1238,-5316,127,-243,444
442,11870,2312,2686,2182,-2336,-3684,-74,-669,1879
443,11870,2028,2687,-2026,270,-2198,-722,-792,1962
444,10985,2317,2689,-2880,3134,-3308,498,1348,2811
445,10985,1996,2689,-2222,-1758,-1956,-461,-675,3710
446,10985,2062,2688,-3338,-1314,-3866,27,-319,3064
447,10500,2229,2689,-1992,1746,-2344,410,-368,2265
448,10500,2126,2689,-1024,-1354,-5714,-170,-583,4438
449,10500,2203,2689,-2442,824,-6230,78,128,3656
450,10500,2074,2689,-3156,-2562,-5926,-32,93,4861
451,10500,2094,2689,-3882,54,-3104,-122,634,4827
452,10500,2109,2689,-2452,1632,-1278,317,-558,4022
453,10500,2131,2689,-2178,-2782,-3648,320,-122,4181
454,10500,2064,2690,-2068,-2406,-1396,479,-46,4956
455,10500,2055,2690,-2994,-2422,-2662,-161,170,5133
456,10500,2027,2688,-2328,-1990,-1902,146,-272,5157
457,10500,2037,2689,-2870,-566,-4074,204,-329,4494
458,10500,2130,2690,-1284,-1156,-2316,176,155,5395
459,10500,2064,2691,-1662,2306,-6116,759,-812,4426
460,10500,2001,2688,-1926,2222,-5526,-223,137,5018
461,10500,2075,2688,-2644,1434,-3880,75,167,5177
462,10500,2006,2692,-1596,346,-6118,-277,271,5710
463,10500,2095,2690,-1058,-3562,-1914,72,-284,5516
464,10500,2040,2690,-456,-590,-6054,178,595,5375
465,10500,2143,2691,-3098,-834,-2610,-254,-380,4491
466,10500,2145,2691,-2500,-200,-2886,579,827,4243
467,10500,2151,2688,-1522,-1792,-3500,-628,-26,7408
468,10500,2139,2688,-2112,140,-2522,-225,227,5260
469,10500,2152,2691,-1306,-1114,-5888,1415,55,1932
470,10500,1989,2690,-1852,1656,-5440,-174,-411,5042
471,10500,2111,2689,-1786,1050,-5418,52,477,4543
472,10500,2017,2689,-2980,2584,-3818,-274,996,4408
473,10500,1868,2690,-1142,1048,-2106,223,-358,3506
474,10500,2106,2688,-10,-1622,-7830,211,78,4718
475,10500,2058,2691,-1582,-640,1206,320,-161,5481
476,10500,2156,2690,-2606,-786,-5724,359,-838,5973
477,10500,2127,2690,-3864,-1078,-2912,-45,1059,6005
478,10500,1973,2689,-1616,-1150,-416,-119,-240,5483
479,10500,2112,2687,-1506,-2696,-5046,-74,900,7134
480,10500,2049,2690,-504,-1268,-4300,-219,-589,5552
481,10500,2064,2693,-4798,1286,-4206,-684,-205,4249
482,10500,2181,2689,-712,-2434,-1584,149,11,4944
483,10500,2071,2689,-2202,2218,-4680,0,87,5495
484,10500,2186,2692,-1768,-1948,-3742,136,995,4982
485,10500,2337,2690,-2606,-1392,-6040,-471,-1634,5224
486,10500,1979,2688,-2812,-142,-5550,482,1180,2890
487,10500,2255,2689,-2228,406,-3242,-360,-1265,5313
488,10500,1984,2689,-1428,1418,-6098,52,-145,5065
489,10500,2208,2690,-1864,-1622,450,427,-630,5678
490,10500,1825,2692,-900,-2574,-5836,33,39,6760
491,10500,2099,2689,-2828,-3004,-3486,-241,189,5681
492,10937,2109,2690,-3076,420,-960,747,466,5142
493,10937,2066,2691,-2046,1550,-5588,-28,370,5174
494,12898,2153,2689,-2414,654,-3788,4,383,5316
495,12898,2093,2690,-2726,-392,-5882,-138,-227,6224
496,15110,2018,2690,-1752,-438,-2860,198,589,5814
497,17035,2078,2688,4204,-1936,-3362,414,182,3698
498,17035,2002,2690,-2826,442,-7118,291,1363,6441
499,17000,2071,2691,570,138,-2952,-316,2126,6598
500,17000,2027,2690,5264,-750,-5610,191,754,2752
501,17143,2034,2693,154,788,-2030,-312,1180,1116
502,17143,2115,2695,112,-208,-3928,-425,-170,400
503,17454,2035,2692,-622,2400,-3220,-57,1011,-213
504,18315,2086,2693,2010,406,-24,288,-564,-520
505,18315,2045,2690,-2110,-1588,-2778,404,-103,-856
506,19367,2173,2691,5412,436,-5896,159,843,-738
507,19367,2048,2689,1476,-846,-5702,-9,-138,-1257
508,20575,2002,2689,1240,-428,-4258,85,516,-1985
509,20575,2056,2688,3328,-1594,-5474,-1003,732,-1893
510,21818,2112,2690,-192,1102,-3524,94,354,-1554
511,23074,2055,2691,2940,214,-3436,120,227,-2671
512,23074,2093,2691,4198,-1308,-1662,272,354,-3219
513,23500,2013,2690,1356,-2198,-5144,282,-694,-3078
514,23500,2150,2691,3780,-904,-7288,-584,-342,-2135
515,23500,2023,2690,2052,-1138,-4204,-487,-735,-4746
516,23500,2002,2689,976,-626,-2304,71,858,-4116
517,23500,2018,2690,720,-80,-2440,340,363,-3779
518,23500,1973,2691,2368,-3004,-3588,1053,265,-4171
519,23500,1939,2690,5444,-3980,-3936,23,255,-4918
520,23500,1895,2692,2174,-1310,-4362,-545,529,-5772
521,23500,2211,2690,2108,-1724,-3404,-12,687,-5259
522,23500,1769,2689,1372,-1416,-546,17,-113,-5560
523,23500,1989,2690,-692,324,-2512,533,-1183,-5731
524,23500,1960,2688,630,-1216,-5366,-9,-259,-5165
525,23500,2188,2689,1656,-1340,-4002,-335,-989,-5521
526,23500,1889,2690,696,-2150,-3578,-132,-43,-5642
527,23500,2066,2687,1038,-640,-1422,278,992,-5736
528,23500,1695,2689,52,18,-2140,555,493,-5354
529,23500,1985,2691,2192,1824,-7958,-319,896,-4726
530,23500,2092,2689,1938,1980,-5996,-54,205,-4976
531,23500,2179,2691,3336,2364,-7512,-61,-675,-4799
532,22870,1837,2689,848,370,-4746,87,414,-5828
533,22870,1907,2689,2420,336,-3566,101,-30,-4478
534,21388,2001,2691,214,562,-3668,-410,-152,-3815
535,21388,1935,2688,3382,-1612,-2230,-28,-777,-5350
536,19666,1910,2691,1892,944,-4362,-125,-1231,-4487
537,17968,1974,2689,-1416,-24,-2590,-90,-170,-3726
538,17968,1997,2687,174,1084,-1430,185,-94,-3768
539,17011,1935,2687,-3006,-510,-3414,288,-1317,-3063
540,17011,1964,2688,540,756,-6296,136,954,-2185
541,16964,1960,2688,-502,1972,-1170,-3,27,-1731
542,16964,2010,2688,-1430,554,-4136,169,59,-364
543,16665,1953,2690,1318,-1890,-2786,-1000,262,1078
544,16174,1991,2690,-636,-190,-2974,375,-1034,-608
545,16174,1909,2689,-1410,360,-3306,275,103,-1472
546,15708,1949,2690,-94,306,-5212,-225,-208,571
547,15708,2059,2689,-320,-708,-2980,427,132,-367
548,15039,1891,2690,-448,1784,-2854,23,-221,282
549,15039,2018,2689,58,400,-4746,-274,-208,-28
550,14321,1920,2691,4930,1384,-3284,205,-319,-51
551,13771,2014,2690,-1134,-166,-6576,-616,-666,612
552,13771,1940,2691,-958,1052,-4596,788,509,1134
553,13161,2009,2689,-2168,1134,-4958,536,52,930
554,13161,2133,2689,-1446,1758,-5782,-194,1103,2489
555,12671,1837,2689,-2200,642,-2256,611,-907,2030
556,12157,1940,2689,-3556,-1514,-6446,117,265,3804
557,12157,1972,2688,-1600,-1504,-1742,214,-157,2737
558,11918,2118,2690,-2520,-1766,-3918,433,-75,3153
559,11918,1797,2689,-910,-1894,-3068,404,90,2427
560,11966,1908,2690,-2262,-316,-5366,397,-177,3249
561,11966,1822,2690,-1096,2196,-4224,-119,484,3686
562,12145,1970,2689,-524,-674,-4726,1173,-532,1947
563,12253,1906,2688,-2130,-454,-4082,449,640,3556
564,12253,1958,2690,-1314,708,-5404,417,-472,3733
565,12372,1923,2690,-1590,-870,-3946,453,506,4040
566,12372,1965,2690,-2174,150,-4718,-148,39,3651
567,12360,1852,2690,-994,1122,-2326,114,167,3580
568,12360,1934,2689,-2544,854,-3510,349,-269,3869
569,12265,1736,2690,-1338,-168,-4038,169,319,3076
570,11966,2089,2692,-900,-824,-4100,214,-395,3651
571,11966,2129,2689,-850,-808,-5380,314,-167,3123
572,11679,1815,2689,-454,-1548,-3894,-48,458,3187
573,11679,2076,2689,-2392,-234,-2634,-364,147,3707
574,11655,1915,2691,-66,-714,-2672,-342,310,3704
575,11655,2220,2691,-1790,998,-3802,-309,-205,5369
576,11679,1878,2690,-1972,-1364,-1370,-9,-75,3553
577,11882,2119,2691,-2678,-1804,-2664,479,-34,2551
578,11882,1721,2690,-2164,1100,-5554,-232,370,2825
579,12480,1963,2690,-1488,1164,-3158,52,154,2560
580,12480,1948,2689,-2182,28,-1718,246,-380,4013
581,13257,1959,2689,-1254,1240,-4964,-138,-97,3810
582,15170,2071,2690,-716,-470,-2612,275,412,3621
583,15170,1945,2690,-3338,-1402,-1164,743,-977,3966
584,17047,1980,2689,-2584,-184,-6470,-148,668,4346
585,17047,1943,2688,2406,-1460,-5878,-1059,1192,6002
586,17023,2076,2687,5286,-1250,-1722,-374,316,2516
587,17023,1996,2691,-524,2092,-1208,149,-1498,966
588,17047,2050,2693,1552,308,-202,389,631,762
589,17047,1994,2692,1702,-1916,-4484,427,-2,986
590,17047,2038,2689,950,1012,-4270,-41,274,-393
591,16988,1966,2689,-170,1834,-4482,272,160,-3075
592,16988,1938,2691,246,368,-4934,16,-739,-482
593,16976,2036,2691,786,-1334,-3248,-681,-843,783
594,16976,2016,2690,-404,-928,-5252,-206,506,485
595,16976,2033,2689,232,-356,-1294,88,-221,158
596,16976,1951,2688,6,624,-3854,-41,465,423
597,16976,1933,2691,1558,-356,-4252,-781,-126,2887
598,16976,1886,2690,-174,212,-6898,-774,602,14
599,16976,2018,2691,1198,424,-1162,-371,-815,373
600,17000,1925,2688,-456,-404,-2094,-6,-363,-800
601,17000,1875,2691,-228,-208,-3038,56,573,824
602,17047,1992,2692,-492,-782,-5188,7,573,600
603,17047,1839,2689,-1252,446,-2208,-158,427,23
604,17047,2011,2688,-652,660,-2414,-187,151,208
605,17047,2012,2692,308,1184,-4400,4,173,907
606,17047,2045,2690,174,886,-3918,62,-113,417
607,17047,1837,2691,142,-1010,-2206,-294,58,644
608,17047,2174,2689,96,698,-4636,52,-542,-331
609,16988,1893,2689,-116,888,-6086,-184,214,149
610,16988,1934,2691,528,-346,-1760,104,363,1157
611,16988,1973,2690,-1092,-152,-5082,23,-304,-19
612,16964,2110,2691,166,-220,-2010,-164,633,-54
613,16964,1709,2687,-744,-498,-5436,-103,116,-190
614,16964,2050,2690,340,114,-3154,-116,443,904
615,16964,1906,2691,922,1728,-7144,466,-237,-735
616,16964,2032,2689,-252,1022,-5624,-241,617,992
617,16964,1872,2689,1468,306,-2272,-416,-316,-131
618,16964,1968,2690,164,-1294,-4222,-241,-132,-190
619,16976,1798,2690,532,-32,-4040,243,-770,-1130
620,16976,2221,2690,664,-264,-3404,475,-462,-343
621,16760,1991,2690,464,-294,-3398,7,271,-652
622,16497,1853,2690,92,-138,-2520,104,-148,51
623,16497,2020,2690,-864,3242,-4556,-151,103,76
624,16163,2182,2690,452,1708,-5084,-354,662,-894
625,16163,2061,2690,1018,-1192,-5056,449,-767,-714
626,15624,2130,2689,1628,242,-8632,149,372,-299
627,15624,2158,2691,-368,-176,-3822,327,142,-364
628,14823,2149,2688,-1800,82,-7510,533,-399,-3323
629,13939,2100,2687,-940,-884,-4238,-119,-195,-372
630,13939,2148,2689,-860,-1156,-3576,453,68,205
631,13293,2130,2690,-3364,300,-4484,-61,52,936
632,13293,2082,2689,56,-192,-6176,394,-1244,1086
633,12827,2154,2688,-1522,-928,-6610,385,93,3757
634,12827,2351,2688,506,906,-522,136,589,3132
635,12695,2011,2689,-1522,-882,-4854,30,-399,2363
636,12480,2282,2691,-2756,616,-4294,-183,627,3975
637,12480,1845,2688,-1788,1886,-4072,-694,-701,3302
638,12551,2377,2689,-1052,-1462,-3952,-177,706,3589
639,12551,1938,2689,-1256,-236,-4358,401,151,3176
640,12599,2130,2691,-1592,236,-2530,59,-265,2522
641,12791,2408,2690,552,1780,-4550,-161,7,2934
642,12791,1920,2690,-974,302,-4702,-393,1066,4664
643,13042,2009,2690,694,-286,-6530,-203,671,2837
644,13042,2151,2690,-516,832,-3564,352,801,4419
645,13257,2184,2689,66,708,-4554,69,-525,4004
646,13257,2069,2690,-1398,1432,-4732,462,-970,3114
647,13209,2051,2690,-694,-1372,-3560,446,179,3533
648,13257,2117,2690,-2474,-1466,-3700,-264,24,3465
649,13257,2145,2689,-1954,-2008,-3970,107,680,3461
650,13245,2098,2690,-1952,2184,-4986,52,-11,3680
651,13245,2143,2689,-768,56,-1634,-219,1278,2607
652,13245,2029,2691,402,-716,-3108,320,-532,3382
653,13245,2137,2691,-524,-1298,-4792,326,312,3562
654,13508,2051,2691,-786,-94,-3396,230,249,3542
655,13723,2118,2689,-3336,-902,-2092,-358,-113,3023
656,13723,2101,2689,-2520,-28,-4100,-486,142,3385
657,13903,2127,2689,-498,-794,-3624,-306,-69,4305
658,13903,2185,2688,-1410,-1044,-5164,20,-275,2937
659,14309,2090,2690,-3824,2008,-2700,142,287,3329
660,14309,2261,2690,1524,-216,-3060,404,633,3374
661,15134,2327,2690,-750,-844,-7342,-303,-472,3524
662,15947,2066,2689,-156,-554,-400,-729,1170,2528
663,15947,2088,2691,-714,196,-2190,294,259,2307
664,17035,2268,2690,2476,262,-7056,-661,964,2156
665,17035,2113,2692,1556,1012,-2890,130,-8,1585
666,17047,2261,2693,368,2178,-5608,-128,358,391
667,17143,2155,2691,1464,-2474,-884,359,-97,-69
668,17143,2150,2690,1588,884,-7596,533,461,-102
669,17346,2129,2691,296,-1084,-2914,369,-602,444
670,17346,2155,2690,136,310,-3008,-151,-319,854
671,17860,2246,2690,-1670,-412,-6096,59,-624,-912
672,17860,2074,2690,1268,94,-1728,-490,179,1667
673,18327,2184,2690,542,2466,-3552,-251,278,-1318
674,18757,1956,2692,1194,1234,-5224,288,-94,-211
675,18757,2184,2690,1748,-1268,-2924,-6,256,-561
676,19080,1880,2691,3392,-1390,-3498,-571,-326,2601
677,19080,2052,2690,1182,294,-3112,253,783,-1693
678,19295,1873,2691,1830,-1720,-4938,501,-523,-1215
679,19295,2080,2690,1704,606,-6298,349,-103,-4560
680,19499,2190,2689,330,546,-2930,227,262,-2377
681,19797,2056,2689,-716,-708,-1348,-61,-1292,-2180
682,19797,2112,2688,496,272,-3306,14,-284,-1713
683,20622,2042,2691,922,-1748,-4312,-167,351,-1808
684,20622,2114,2690,4308,-2224,-1640,-435,-157,-965
685,21352,1925,2690,1948,-208,-3894,-19,539,-1964
686,21352,2036,2690,1678,-420,-758,-145,369,-2006
687,21627,2074,2689,2992,-1224,-6714,176,101,-3110
688,21615,2027,2691,1148,506,-7740,369,116,-3343
689,21615,2049,2691,1568,208,-2180,39,-462,-4366
690,21232,2115,2689,586,-1078,496,-248,382,-5781
691,21232,1960,2690,1200,-182,-2322,162,328,-3880
692,20622,2054,2690,804,422,-5350,149,-183,-4015
693,20037,1925,2688,376,800,-3280,-222,1081,-3821
694,20037,1967,2690,2554,-316,-4400,104,-770,-3894
695,19809,1960,2690,778,-378,-3716,204,-240,-3971
696,19809,1984,2690,212,-1094,-2334,204,-519,-3255
697,19774,1980,2688,406,1348,-2368,-38,-198,-3069
698,19774,2127,2690,992,-2556,-3884,-319,-1043,-4587
699,19666,1892,2690,354,-638,-3314,-174,770,-2680
700,19487,1919,2690,972,1186,-3982,-32,33,-3167
701,19487,1992,2690,278,1208,-3064,288,113,-3343
702,18865,2073,2691,444,148,-2402,49,-355,-3090
703,18865,1920,2689,476,254,-6286,81,20,-3122
704,17789,1891,2690,3986,-270,-1734,7,-199,-3467
705,17789,2038,2690,-4194,1714,-4028,-212,-668,-2518
706,17131,1976,2689,-2794,1306,-4574,107,728,-1236
707,17131,1940,2687,-472,1812,-3092,-300,-37,-562
708,17131,2003,2687,-2632,-242,-2308,71,166,697
709,17167,1933,2689,286,178,-5042,-90,608,-694
710,17167,1966,2691,-1186,454,-2404,-86,621,-532
711,17155,2131,2691,-476,950,-1580,-223,503,-638
712,17155,1901,2692,98,-334,-3034,107,-935,-809
713,17155,2163,2690,-268,-506,-3148,420,837,-782
714,17155,1849,2691,-436,-804,-2676,397,-460,-1855
715,17155,2169,2691,-2284,220,-2540,320,541,-487
716,17143,1857,2689,-726,418,-4570,-394,-577,-930
717,17143,2141,2689,-308,2926,-5192,-315,491,-924
718,17131,1909,2689,968,762,-4178,81,-166,-1177
719,17131,1995,2690,364,320,-7868,62,-142,-558
720,17107,2095,2688,556,-1990,-2610,52,776,-1292
721,17107,2192,2688,266,-1106,-3350,65,-78,-900
722,17107,1905,2690,48,-1122,-3670,-103,163,-835
723,17119,1965,2690,-1916,2006,-3880,-96,-113,-1914
724,17119,2187,2690,-810,-68,-2938,-506,-345,84
725,17107,2023,2690,-216,4162,-6428,-216,703,-31
726,17000,2169,2689,774,-394,-4628,-67,-608,-98
727,17000,2242,2688,984,86,-7690,-129,1405,1404
728,16892,1686,2689,792,-554,-4042,100,614,-63
729,16892,2199,2690,-642,718,-1980,116,-628,-786
730,16414,1947,2690,584,178,-2632,-113,-428,107
731,16414,2216,2691,-694,1582,-3078,-116,-1647,-458
732,15744,1820,2689,-1008,1042,-5054,100,-117,-43
733,15062,2081,2688,-1010,-406,-3630,191,-573,-938
734,15062,2060,2690,-2500,-1098,-2930,94,33,-169
735,14429,2206,2690,-444,-1026,-1508,101,643,356
736,14429,1873,2688,-2520,-1498,-3580,-15,-942,921
737,14058,1999,2690,-3706,780,-4406,-438,-122,1903
738,14058,2251,2690,-2608,-344,-2790,40,-109,1738
739,13867,2002,2689,-1668,706,-6812,172,-516,1617
740,13783,2001,2692,-2716,-310,-2740,414,36,966
741,13783,2239,2691,-1330,1296,-5202,-116,45,-367
742,13592,1950,2688,-922,564,-3962,-303,332,1826
743,13592,2026,2690,-1760,-1950,-3658,418,364,2548
744,13305,2075,2690,-752,-960,-3712,-261,252,2539
745,13305,2037,2690,-1624,-1260,-4226,-326,-250,1958
746,13078,2109,2690,1132,-372,-2462,-12,328,2103
747,12898,2036,2690,-2826,2182,-3428,-158,-564,2719
748,12898,2139,2689,-2320,2442,-2798,-800,-116,3203
749,12791,2047,2689,-1344,-1462,-7126,133,-69,2910
750,12791,2191,2689,-1610,700,-6066,-839,576,3270
751,12563,2164,2689,-1916,-828,-2482,430,-466,4110
752,12265,2132,2691,-156,2700,-3918,43,-399,3656
753,12265,2090,2692,1328,1532,-7482,-93,109,2265
754,12073,2153,2690,-1064,-676,-6136,233,621,2159
755,12073,2098,2690,-1492,-682,-3462,324,-545,2557
756,11894,2178,2690,-3534,778,-2928,114,-354,3359
757,11894,2130,2689,-1480,-212,-58,236,106,3744
758,11882,2219,2689,-776,-2354,-3600,-229,-513,5195
759,11882,2111,2690,-2144,-186,-3156,-55,268,3585
760,11882,2162,2690,-1808,546,-4888,-364,-202,3082
761,11882,2168,2690,-3472,-824,-3872,88,-580,2902
762,11882,2179,2688,-1270,1646,-5362,362,259,3954
763,11870,2180,2689,-948,1564,-2414,-128,-27,3553
764,11870,2346,2691,-1460,54,-1632,59,116,4841
765,11870,1867,2689,-892,722,-4878,-28,-21,3721
766,11750,2354,2688,-3610,-512,-2688,-90,90,3302
767,11750,1975,2690,-1722,968,-2922,176,-776,3099
768,11643,2136,2691,-744,-2252,-6442,-125,-615,4865
769,11643,2244,2690,-1912,-526,-3862,-264,-195,4119
770,11559,2143,2689,-1308,-2108,-3566,-119,646,4688
771,11559,2269,2689,-960,-3780,-3252,104,1005,3259
772,11523,2264,2690,-186,894,-6390,-99,503,4623
773,11547,2205,2689,634,478,-7180,311,-741,4573
774,11547,2254,2690,-964,-1888,-6778,211,335,4107
775,11583,2110,2689,-3604,894,-4218,818,274,845
776,11583,2293,2689,-336,-2784,-4094,-187,294,4278
777,11619,2174,2689,458,-30,-3408,-193,-189,3609
778,11619,2097,2690,-2656,188,-2744,-38,382,4293
779,11619,2130,2691,-534,-130,-2404,152,-1148,3041
780,11631,2293,2691,-2066,-2126,-6924,62,363,4932
781,11631,2045,2690,-2782,-536,-5952,-187,-783,4880
782,11643,2187,2689,-2022,264,-6298,-232,-148,4449
783,11643,1959,2688,-1226,-2636,-3162,120,281,4824
784,11667,2239,2690,-2196,-160,-3068,346,915,4811
785,11679,2269,2692,-1912,-1276,-2792,305,304,4591
786,11679,1844,2690,-3026,1106,-5302,88,-551,3872
787,11655,2126,2690,-2336,-1044,-2796,-189,-913,4152
788,11655,2110,2691,464,-1080,-3562,-25,415,3998
789,11679,2096,2688,326,1540,-2976,-306,672,6344
790,11679,2238,2691,-1816,-526,-58,213,287,4632
791,11655,2003,2691,-3630,-550,-2014,304,186,3029
792,11655,2127,2691,-2592,-1960,-4982,30,-535,4099
793,11655,2056,2689,-2306,-602,-4544,-425,173,4685
794,11750,2140,2687,966,-1170,-2400,-116,294,4918
795,11750,2215,2690,832,-1932,-6898,443,-52,4140
796,11762,2106,2690,-2472,808,-3442,449,-364,4243
797,11762,2159,2692,-1634,278,-3950,220,503,3718
798,11870,2095,2690,-1364,2240,-9026,-96,37,4974
799,12241,2249,2689,-2460,-1024,-2332,-558,983,4499
800,12241,2113,2690,-2890,-2456,196,229,-1073,4929
801,12838,2068,2691,-164,-224,-9316,230,-24,3724
802,12838,2328,2690,646,-1196,-2668,107,131,2969
803,13783,1905,2689,-674,1402,-6596,-303,516,4461
804,13783,2295,2688,992,-652,-3548,-358,836,4758
805,14919,1824,2689,-300,-552,-2674,-235,202,3126
806,16151,2161,2692,2878,52,-7338,33,382,3866
807,16151,2183,2692,2860,-482,-5384,7,814,2525
808,17131,2044,2691,4422,-264,-4414,-219,-66,152
809,17131,2169,2692,-1148,1108,-3828,-177,430,502
810,17155,2094,2691,4388,1032,-3232,-86,671,429
811,17346,2020,2690,798,180,-2442,256,-726,37
812,17346,2072,2691,-1236,1684,-5394,-106,421,-237
813,17932,2097,2690,1776,-1232,-3506,7,-583,300
814,17932,1995,2689,-148,-1058,-5670,-293,-507,724
815,18745,2041,2689,274,-228,-6550,-367,329,577
816,18745,2040,2691,5452,-458,-5182,-16,712,-615
817,19415,2161,2690,876,-572,-4636,-255,-37,-111
818,20025,1997,2691,2416,2914,-3972,-132,725,-2798
819,20025,2256,2691,832,-532,-4800,143,-161,-1165
820,20300,1925,2689,2286,-460,-3466,133,-427,-2253
821,20300,2082,2692,1366,1994,-6032,-310,-63,-2256
822,20431,1980,2691,2802,-918,-3544,-138,-72,-2589
823,20431,1974,2691,2488,-2322,-3726,-106,-425,-1976
824,20407,2001,2691,874,-1130,-1962,324,52,-3057
825,20288,2033,2689,1934,744,-3820,288,59,-3178
826,20288,1948,2690,1504,-986,-4468,65,-609,-3709
827,20132,1982,2691,2314,-194,-4370,-210,214,-2501
828,20132,1924,2689,756,-1570,-2428,-190,-142,-2710
829,20132,2050,2690,1280,-2596,-3498,50,-468,-2592
830,20132,2114,2691,1918,66,-4332,204,-256,-2898
831,20132,1485,2690,924,30,-4202,62,366,-2790
832,20132,2220,2690,1126,1130,-2144,-377,-30,-4829
833,20132,2058,2690,956,994,-4566,-309,-389,-4454
834,20072,1727,2690,872,2840,-3204,140,-224,-2067
835,20072,2059,2691,808,2252,-4018,101,-141,-2430
836,20072,1800,2690,-826,2036,-2730,294,-386,-2680
837,20025,2028,2689,198,1034,-4926,737,405,-4080
838,20025,1981,2691,-774,1900,-4712,-83,-278,-1958
839,19785,2271,2689,790,-1046,-2758,-507,245,-1823
840,19785,1815,2689,904,-3612,-1400,127,-621,-2486
841,19379,1989,2689,1068,-1036,-6002,23,-129,-3143
842,19379,2057,2688,974,-1690,-4048,120,-405,-2512
843,18972,1990,2689,1576,-12,-5618,110,-281,-3818
844,18387,2070,2690,2624,166,-4840,-235,-316,-2748
845,18387,2108,2689,854,-674,-5380,178,290,-2883
846,17705,2020,2689,1762,1712,-3550,23,268,-1545
847,17705,2070,2688,5258,556,-5578,210,1252,-3317
848,17107,2020,2689,-4278,4208,-5334,781,-1314,-3960
849,17107,2035,2690,-5566,1838,-4228,-551,214,-1967
850,17047,1974,2689,542,622,-1010,362,-144,-1333
851,17000,1939,2689,190,332,-4718,-180,-691,-809
852,17000,2102,2689,-400,-732,-3936,243,725,-1917
853,16976,2022,2690,696,-2512,-4070,-22,-688,-332
854,16976,2063,2690,-126,-1032,-6242,-371,411,-753
855,16760,2017,2689,1128,1252,-4316,259,789,-219
856,16760,2021,2690,666,214,-4814,446,-729,-1112
857,16557,2120,2690,1604,-294,-6706,356,36,-1663
858,16318,2024,2689,2,2252,-6772,-468,217,1755
859,16318,2120,2692,-230,2520,-4372,81,125,-184
860,16174,2015,2691,758,-932,-1882,446,68,-720
861,16174,2007,2690,1124,1320,-3394,-216,607,-500
862,16163,2003,2691,1452,-260,-3920,275,116,-19
863,15983,1952,2690,-88,894,-3580,233,-463,-618
864,15983,2045,2690,1528,-2096,-3678,827,239,-1693
865,15732,2000,2691,-792,-2712,-3350,294,-462,-266
866,15732,1923,2691,-2392,596,-5946,378,-612,553
867,15624,2039,2688,-1440,-2396,-4404,-284,109,166
868,15624,1940,2687,764,-272,-6084,-322,-132,28
869,15397,1998,2689,-960,222,-2268,84,-231,426
870,15290,1901,2690,-714,-942,-3226,227,37,323
871,15290,2003,2690,-778,478,-724,1092,678,-1307
872,15230,2175,2689,-150,796,-3652,-455,192,111
873,15230,1918,2688,-1620,340,-6256,362,662,-4222
874,15134,2242,2689,-1864,944,-4734,-51,-28,-190
875,15134,1896,2691,-848,-880,-3110,140,-402,612
876,15134,1916,2691,988,-1148,-3438,101,-659,647
877,15051,2003,2691,-2356,230,-2426,446,-215,-2881
878,15051,2251,2689,604,-2790,-3624,-383,795,600
879,15062,1916,2690,1300,-24,-4294,301,551,-1478
880,15062,2061,2692,-10,-1834,-2548,117,398,630
881,15039,1992,2689,-284,-60,-3704,-238,-300,641
882,15039,1697,2689,-82,-6,-4406,-164,-459,1308
883,14919,2201,2688,-848,1600,-4810,-90,217,285
884,14919,2082,2689,-1524,2266,-938,327,-27,1579
885,14919,1960,2690,-2000,1488,-5310,424,941,842
886,14883,1702,2690,-156,1098,-4230,201,757,1705
887,14883,2003,2690,-1884,1344,-4308,39,151,529
888,14692,1884,2690,-1322,1524,-4674,140,-452,1605
889,14692,2013,2690,-518,1918,-3478,-154,-443,1361
890,14417,2026,2691,-1176,-16,-3188,324,138,1478
891,14094,1958,2687,-742,328,-4490,585,-107,1316
892,14094,1987,2688,170,722,-4586,-57,-37,597
893,13759,2021,2690,2456,3238,-4430,39,-158,517
894,13759,2081,2689,-1850,-2018,-6520,-338,-431,2516
895,13281,1989,2689,-686,-98,-9404,872,-34,1782
896,13054,2105,2688,1598,-3278,-5268,679,465,1570
897,13054,2037,2689,-1752,-2044,-5512,101,14,2071
898,12803,2054,2690,-146,-240,-4780,-132,633,2554
899,12803,2040,2688,-2696,1918,-1930,-128,-259,3265
900,12695,2114,2691,-3226,1792,-2382,223,887,3371
901,12695,2058,2691,1498,558,-7788,100,166,2686
902,12456,2188,2689,-2100,306,-5332,165,-116,3167
903,12360,2295,2691,-1810,-816,-2396,175,119,4659
904,12360,1800,2691,-4146,-408,-1874,133,396,3238
905,12265,2104,2689,-1584,-390,-1048,-283,-107,3813
906,12265,2222,2690,-2132,-1538,-2906,-90,-713,3583
907,12229,2296,2690,-3556,462,-4196,188,373,2967
908,12229,1979,2690,-2162,-114,-3132,98,-30,3577
909,12133,2019,2690,-1494,2356,-6144,-42,-101,3388
910,12133,2174,2689,-1884,1458,-4692,-598,-241,3296
911,12133,2084,2690,-2762,252,-4188,-25,-39,3636
912,12145,2227,2689,-708,2434,-4336,85,-112,3592
913,12145,2077,2690,-2142,-1200,-4998,269,-1015,1856
914,12133,2021,2690,-2178,500,-3442,98,195,4243
915,12133,2068,2689,-2256,1624,-4690,-542,-599,5018
916,12145,2121,2688,-2578,-660,-2804,-203,49,4246
917,12145,1997,2690,1698,100,-6184,-306,-465,3766
918,12145,2198,2689,-2564,-356,-3928,-490,72,4125
919,12133,2075,2690,-882,-298,-1530,117,344,3715
920,12133,2202,2689,-602,1298,-4612,-312,-446,2881
921,12121,2072,2688,-1054,-1554,-3162,68,309,3907
922,12121,2136,2689,332,-1930,-2920,-690,36,8631
923,12121,2070,2689,-996,-26,-5492,7,287,3878
924,12157,2087,2691,-752,1946,-5288,68,-411,3424
925,12157,1996,2691,-918,-1256,-4222,130,-481,4461
926,12205,2077,2688,-2164,-1882,-4376,249,430,3321
927,12205,1993,2690,-2078,-2880,-4208,-325,-122,4240
928,12229,1969,2690,278,-2496,-5360,-403,-850,3703
929,12229,1945,2689,-414,-890,-6224,4,466,2799
930,12229,2121,2689,-902,-2388,-1558,418,-452,3211
931,12217,1989,2691,-1116,-1786,-4296,84,357,3715
932,12217,2020,2691,-912,336,-2534,-145,-249,5248
933,12217,1919,2688,-2196,-1316,-2638,0,271,3797
934,12217,2032,2690,-1116,-280,-2318,-76,554,3270
935,12217,1817,2690,-1138,-236,-4674,81,-529,3262
936,12265,2132,2690,-356,-940,-2580,320,-164,3780
937,12265,1842,2690,-1294,422,-3550,56,-478,2702
938,12324,2080,2688,-1434,342,-2488,-99,138,2575
939,12324,2082,2688,-1182,1184,-2412,-703,-291,3854
940,12372,1771,2690,-242,-1924,-4172,-99,-513,2870
941,12372,1915,2689,-1712,938,-4678,-154,732,3936
942,12444,2090,2691,-1252,1226,-2908,-361,-453,3250
943,12540,2135,2690,-1414,-220,-1504,200,982,3267
944,12540,1875,2690,-556,192,-5300,330,-250,1387
945,12599,2100,2690,-2172,-246,966,320,17,2784
946,12599,2013,2689,-828,-696,-1810,385,-945,4252
947,12683,2037,2690,-2116,-274,-5192,-258,-1155,3128
948,12683,2126,2688,-2360,2690,-3476,-77,94,3886
949,12683,2082,2689,-2260,564,346,223,-24,2460
950,12695,2078,2690,-2968,1094,228,127,297,4057
951,12695,2059,2690,-1558,-796,-6174,-345,729,2631
952,12659,2176,2688,-2734,696,-2266,-258,-36,3477
953,12659,2129,2687,-1898,550,-6658,-63,81,2413
954,12659,2109,2689,-2790,-174,-2282,159,-411,4379
955,12683,2072,2690,156,-2542,-6044,565,169,3977
956,12683,2181,2690,-840,-1046,-3944,-148,-291,2975
957,12779,2166,2689,-2116,1382,-3016,301,408,3875
958,12779,2159,2690,1548,-386,-9168,20,-856,4069
959,13006,2223,2688,-2236,-1300,-5478,207,-234,4099
960,13006,2171,2691,-2880,1100,-2326,-377,-151,3892
961,13018,2198,2688,-2380,572,-3480,-352,207,3971
962,13006,2126,2688,-1250,-3198,-2550,49,436,4346
963,13006,2111,2689,-1968,570,-5150,-148,-490,5154
964,13030,2372,2689,-2264,-156,-3798,-93,141,3447
965,13030,1950,2689,-2386,-1204,-2468,472,-742,3674
966,13090,2301,2690,-936,1140,-6962,-45,1418,4449
967,13090,2020,2688,-1330,-572,-400,498,192,4116
968,13281,2115,2688,-3320,2930,-1962,32,-145,3603
969,13783,2227,2691,-552,-1522,-2486,-51,-688,3710
970,13783,2082,2690,-1780,-2020,-5550,256,316,4255
971,14202,2219,2692,232,2014,-4128,88,-78,3005
972,14202,2127,2690,-2768,1754,-5952,-503,363,5381
973,15122,2133,2691,500,-888,-3718,-345,614,3571
974,15122,2054,2691,490,290,-5092,120,332,2551
975,16043,2094,2690,-1454,-340,-2360,233,322,2678
976,17143,2137,2690,-6516,-588,-4402,-6,-897,3819
977,17143,2214,2689,1470,-2510,-2986,317,1424,4326
978,17143,2022,2688,3326,238,-5014,56,-989,1953
979,17143,2197,2693,38,-18,-3640,163,472,1089
980,17322,2101,2693,1134,-454,-4424,621,802,603
981,17454,2073,2689,1844,1006,-6380,-61,4,-205
982,17454,2284,2689,-196,414,-3498,281,-253,-55
983,17789,1968,2691,208,-42,-5546,-138,-713,-599
984,17789,2236,2690,1114,872,-5128,-564,-126,37
985,18088,2010,2689,-162,1134,-2602,-54,-122,-552
986,18088,2159,2689,-1050,-1434,-1206,178,-427,-36
987,18267,1874,2689,-766,-3068,-5560,201,430,-2866
988,18602,1997,2689,3960,790,-6904,98,617,-726
989,18602,2352,2691,1450,1878,-5226,-251,-119,-160
990,18984,2086,2689,838,1486,-4196,-15,792,-1321
991,18984,1873,2690,-1458,2028,-1718,-180,427,-1422
992,19259,2137,2690,-954,-2234,-1730,-255,64,-476
993,19259,2002,2690,3808,-680,-6308,-387,713,-1805
994,19594,1984,2691,2926,-924,-4492,-15,-46,-1360
995,19821,2062,2692,2396,-1668,-4750,50,-475,-3302
996,19821,1897,2691,290,-1892,-2762,-12,681,-1713
997,20025,2169,2689,600,-194,-3060,-97,954,-2477
998,20025,1965,2690,936,1870,-3788,42,252,-2681
999,20060,2068,2689,-82,2678,-3448,-60,-198,305
1000,20060,2187,2691,796,-1274,-2290,110,506,-3191
1001,20060,1991,2692,378,-2542,-2124,-19,-513,-1628
1002,20144,2140,2689,-1224,-94,-4066,-74,115,-2616
1003,20144,2161,2689,272,-616,-1116,-642,182,-1472
1004,20168,1865,2689,746,-1488,-3464,-51,-65,-2091
1005,20168,1968,2689,1726,-544,-4674,52,1078,-2288
1006,20168,2147,2689,1262,-1942,-2306,143,65,-1884
1007,20168,2167,2691,1132,-1792,-4368,204,-707,-2825
1008,20168,1915,2690,1732,-336,-5546,-125,313,-2459
1009,20156,2062,2691,1866,-2558,-764,501,-866,-3037
1010,20156,1941,2691,816,-1004,-5190,214,74,-2506
1011,20156,2257,2690,1102,1490,-1762,-218,193,-2347
1012,20156,1926,2690,434,640,-4634,-26,-218,-2681
1013,20168,2046,2689,1064,1298,-4084,-335,-869,-2795
1014,20180,2183,2688,366,-2790,-1160,56,465,-2503
1015,20180,2061,2689,2472,482,-7278,452,160,-2616
1016,20359,2091,2690,1494,1114,-5022,-77,621,-2556
1017,20359,2278,2690,-42,-410,-2398,-396,440,-2574
1018,20622,1897,2690,804,1178,-4692,-38,459,-2718
1019,20622,2234,2691,2248,666,-7798,-532,-46,-2468
1020,20766,1835,2690,488,-124,-3220,114,-100,-2609
1021,20814,2163,2690,562,-844,-2606,462,167,-3650
1022,20814,1947,2690,1214,-2662,-3058,-70,284,-3688
1023,20802,2280,2691,1158,130,-3752,-329,-919,-3373
1024,20802,1924,2690,828,522,-4238,20,652,-3116
1025,20802,1981,2690,1008,1892,-3836,-371,-256,-2916
1026,20802,2054,2690,-438,612,-2870,-296,717,-2677
1027,20718,2026,2689,-110,-118,-2430,-160,253,-3243
1028,20718,2045,2690,402,1438,-2346,165,935,-3220
1029,20718,2228,2690,1598,136,-3076,-57,160,-2235
1030,20611,1868,2690,-58,-670,-3096,20,-158,-2743
1031,20611,2054,2689,338,-368,-3032,-290,-568,-4378
1032,20395,2192,2690,-8,814,-2546,-112,-119,-3414
1033,20395,2032,2689,350,-1140,228,23,-351,-1557
1034,20276,2065,2690,294,1510,-6002,359,-192,-2282
1035,20264,2085,2689,1610,2816,-5636,-235,417,-2910
1036,20264,2073,2689,1532,756,-2678,-125,-643,-3326
1037,20276,2018,2691,-220,-1826,-3952,-206,-170,-2766
1038,20276,2130,2691,552,92,-2900,-574,-27,-3844
1039,20288,1886,2690,36,3058,-6080,36,-164,-3320
1040,20276,2385,2690,404,876,-4528,-21,351,-3998
1041,20276,1908,2689,892,-1500,-4780,20,-91,-3411
1042,20228,2150,2690,534,-828,-222,-48,538,-4001
1043,20228,2144,2691,528,502,-2380,-83,268,-3871
1044,20228,2192,2688,2270,-738,-1988,17,103,-4098
1045,20228,2043,2690,574,-1922,-3574,282,383,-2830
1046,20132,2193,2689,2430,-1652,-4478,-244,333,-3340
1047,20132,2076,2690,2400,-1932,-4350,323,-183,-2964
1048,20132,2149,2688,1848,-154,-3872,-461,-307,-555
1049,20049,2104,2689,950,798,-5486,-6,-138,-3609
1050,20049,2094,2688,882,586,-7452,859,-234,-6249
1051,19809,2077,2690,2544,-1058,-7454,159,522,-2436
1052,19809,2026,2690,1750,-150,-6578,223,-288,-2866
1053,19020,2147,2690,-470,2370,-4320,-170,-119,-2698
1054,17980,2115,2690,1352,1782,-4296,-119,627,-3983
1055,17980,2241,2690,-4,-1974,-1234,527,-72,-3553
1056,17035,1986,2690,-450,460,-826,120,55,-2928
1057,17035,2183,2689,1476,-1934,1166,188,-224,-3367
1058,16964,2019,2691,1814,-914,-6354,288,-964,-2969
1059,16964,2125,2690,-3212,550,-3994,-251,313,-2394
1060,16820,2307,2687,2222,-702,-3688,340,-33,-1159
1061,16629,1705,2686,-954,-804,-5694,456,-116,603
1062,16629,2169,2690,1828,-352,-7564,85,1100,-496
1063,16330,1894,2691,974,-844,-6906,-90,423,414
1064,16330,2295,2690,868,1000,-6276,156,-1028,1119
1065,16163,1847,2689,-2534,1718,-524,-290,-465,-679
1066,16163,2114,2690,-444,-1826,-4862,65,573,-1
1067,16079,2029,2692,18,-614,-4262,256,-688,49
1068,16079,2283,2689,-1844,-170,-4888,639,585,-341
1069,16079,2004,2689,446,-1830,-3368,324,402,-555
1070,16043,2009,2688,-572,1012,-2612,-54,274,-128
1071,16043,2247,2691,816,630,-2946,49,-180,901
1072,15242,2166,2692,-520,1458,-2814,320,-237,-691
1073,14405,1918,2691,-218,-166,-2534,172,529,-237
1074,14405,2100,2689,-1010,78,-3702,385,-313,-614
1075,13795,2075,2690,1034,-1282,-1824,39,-88,191
1076,13795,1993,2691,542,-2404,-4438,-161,-208,-107
1077,13448,2133,2691,1950,120,-3142,-9,354,-915
1078,13448,1958,2691,-4330,5334,-6652,-125,-593,500
1079,13173,2249,2691,-4018,-184,-7360,-86,646,-549
1080,13161,2058,2688,-1356,-176,-5386,-119,-838,1587
1081,13161,2148,2688,-1108,-940,-3398,-1249,-214,4331
1082,13125,2050,2689,-1006,-2630,-3310,-15,-15,2466
1083,13125,2041,2690,-1308,-808,-5384,233,-314,2203
1084,13137,2077,2689,598,-2032,-2684,256,818,2189
1085,13137,1979,2690,-1116,-516,-4324,533,-297,2802
1086,13137,2076,2689,-1460,420,-2132,408,564,2572
1087,13078,2010,2691,-1462,-286,-2140,-67,-335,2707
1088,13078,1999,2688,-1700,1546,-3614,-587,506,4355
1089,13078,2094,2691,-2050,-1224,-1428,-3,-720,3067
1090,13078,1959,2689,-2284,658,-3806,-80,233,3073
1091,13078,1774,2690,-846,2152,-3808,39,-516,3377
1092,13078,2231,2690,-1396,-832,-6440,272,462,2749
1093,13090,1753,2689,-560,2010,-6594,-261,179,3206
1094,13173,2185,2689,-1370,-472,-5212,-390,-433,6132
1095,13173,1717,2690,-1000,2592,-5228,-86,62,3987
1096,13293,2384,2689,-1146,5014,-3296,-907,-129,7072
1097,13293,1798,2690,-552,1742,-3226,127,-186,3813
1098,13508,2125,2690,-1306,-710,-5050,553,265,692
1099,13508,1738,2690,-1150,934,-5408,-90,-425,3105
1100,13723,2392,2689,920,1568,-6652,-609,1075,3238
1101,13879,1729,2688,820,-1932,-4672,65,-405,2899
1102,13879,2232,2690,-1056,2590,-5594,-25,395,4367
1103,14022,1966,2691,208,-648,-2220,-164,134,3627
1104,14022,2004,2691,-3482,332,-4022,101,735,3942
1105,14058,2059,2689,-1374,1652,-2730,-484,249,3473
1106,14094,2251,2688,-824,2472,-4550,-884,-196,3120
1107,14094,1969,2689,-532,-1490,-2924,81,-211,2799
1108,14094,2203,2691,-1246,-1628,-6998,937,-570,2996
1109,14094,1782,2692,-2016,-672,-5920,333,633,2478
1110,14082,2070,2688,-2402,1452,-2162,-484,-148,827
1111,14082,2154,2689,-2242,1130,-1450,-229,808,3067
1112,14082,2194,2689,-1128,1356,-4424,-255,-1003,3078
1113,14058,1925,2690,-2334,532,-4126,-183,-402,3129
1114,14058,2228,2690,-2166,-1472,-3834,39,-335,4222
1115,13974,1793,2689,-1170,-1112,-5546,343,265,2534
1116,13974,2245,2692,-598,-702,-2218,59,398,1216
1117,13795,1917,2688,-1458,28,126,-164,173,4720
1118,13795,2172,2689,-1734,2580,-4148,-112,-46,4228
1119,13305,2040,2690,-2234,-3838,-514,652,-260,3155
1120,12886,2021,2690,-564,496,-7688,431,-649,2646
1121,12886,2082,2690,-1006,1310,-7692,-529,-418,2893
1122,12683,2045,2689,-1350,-1184,-3414,-309,151,2758
1123,12683,1933,2689,-668,-1390,-3692,-264,282,2404
1124,12420,2087,2688,-756,1054,-1680,-781,656,5840
1125,12420,2196,2689,116,1636,-5610,-70,1402,2858
1126,12217,1995,2690,-1232,2208,-3078,-19,-69,2637
1127,12049,2137,2689,-3850,-706,-2586,-419,592,2634
1128,12049,2003,2689,-2176,-2,-1196,46,-43,689
1129,11726,1979,2690,-4050,-256,-3308,-25,-128,3488
1130,11726,2006,2688,-896,-1010,-3370,249,52,3164
1131,11643,1980,2690,-3614,1348,-4876,223,337,2916
1132,11511,2079,2691,-1066,1902,-7180,-155,36,3288
1133,11511,2046,2690,-2762,1322,-6536,-155,160,3842
1134,11272,1985,2689,-1476,1566,-3830,-719,783,5581
1135,11272,2009,2690,-2394,486,-3160,-271,-469,4234
1136,11093,2180,2690,-2458,382,-7742,-138,672,4075
1137,11093,1845,2690,2030,30,-3144,133,103,3630
1138,11045,2213,2689,-1506,354,-5514,104,925,4098
1139,11033,1895,2689,-1620,1026,-3218,-229,758,4216
1140,11033,2107,2690,-1836,192,-4504,-148,-94,3624
1141,11069,2010,2689,-2076,1538,-2574,33,17,3550
1142,11069,2229,2689,-3036,3638,-6034,-118,923,3960
1143,11069,1915,2691,-1692,-598,-3306,-38,154,3488
1144,11069,2033,2691,-4094,-64,-4726,-267,-290,4205
1145,11057,2183,2688,-3360,-1772,1100,-122,1221,5304
1146,11069,2067,2690,-364,-1164,-748,278,-91,4455
1147,11069,2077,2691,-4056,836,-4488,-45,589,4402
1148,11069,1849,2689,-1790,486,-2844,220,751,4228
1149,11069,2072,2688,-3442,-1728,-7090,-190,-509,4877
1150,11093,2081,2688,-3676,980,-3812,-599,669,5024
1151,11093,2135,2689,890,390,-3212,-283,-450,5714
1152,11164,2308,2691,-1078,478,-2624,324,526,5151
1153,11224,1950,2691,-2444,-342,406,146,297,4552
1154,11224,2096,2691,-2774,-822,-4890,-300,-770,6209
1155,11236,2234,2688,-2450,-402,-3344,-163,-398,5475
1156,11236,2127,2690,-742,-1198,-3284,-338,427,5755
1157,11224,2099,2691,-1984,1938,-5384,236,71,5263
1158,11224,2076,2690,-3452,118,-7594,-80,706,4735
1159,11236,2145,2688,-764,-1270,-3018,-403,945,5587
1160,11320,2081,2690,234,464,-2738,282,74,5557
1161,11320,2139,2689,-1142,1534,-4984,-425,440,6059
1162,11428,2031,2690,-2076,794,-838,-206,-129,4172
1163,11428,2047,2692,-3620,604,-5390,1388,-361,3146
1164,11619,2075,2689,-2830,-2492,-4764,375,132,3409
1165,11738,2067,2690,-960,1274,-4084,-810,-485,10116
1166,11738,2052,2691,-1116,-368,-5568,-96,-173,5549
1167,12265,2071,2690,-1648,-2082,-2130,-675,10,4664
1168,12265,2091,2688,-1084,68,-2210,20,265,4140
1169,13006,1990,2687,-1358,-1496,-3368,-258,-358,6227
1170,13006,2054,2688,242,-512,-4306,446,958,3998
1171,13783,2041,2689,230,-2044,-4216,-135,-583,4275
1172,14572,2077,2690,-1040,-2038,-7754,246,471,3533
1173,14572,2027,2689,-568,-1704,-3762,-490,646,3388
1174,15756,2038,2690,-988,-1164,-2924,-25,319,2221
1175,15756,2013,2689,-202,-732,-4008,269,-237,1968
1176,16868,1950,2690,1932,64,-3856,375,-348,1635
1177,16868,2049,2691,-608,516,-7380,-1278,649,4637
1178,16976,2050,2688,6616,-870,-7750,-425,688,1702
1179,17047,2053,2690,776,736,-1648,-371,-920,146
1180,17047,2039,2694,-254,834,-2918,223,455,8
1181,17047,2034,2691,1612,-56,-1274,378,-390,7
1182,17047,1969,2690,-552,-720,-3230,411,-735,-25
1183,17035,2053,2690,1702,-256,-2582,91,719,43
1184,17035,1960,2690,328,1008,-5326,-487,-475,285
1185,17143,2106,2688,-516,236,-4642,-593,567,305
1186,17143,1930,2690,-290,678,-1884,-106,271,-496
1187,17143,2042,2691,-312,314,-3428,4,56,-313
1188,17131,1944,2690,-522,1580,-3988,453,205,-369
1189,17131,2006,2692,-1150,-216,-2290,320,-281,-249
1190,17119,2038,2689,-962,350,-4480,-48,487,-455
1191,17119,2030,2690,-166,378,-2438,-448,170,-664
1192,17119,2014,2691,782,-1448,-4836,-264,-376,-204
1193,17155,2072,2689,642,742,-5836,-261,81,2
1194,17155,2006,2689,602,-2210,-1918,514,287,-140
1195,17382,2045,2690,-360,-1730,-4310,-35,265,-190
1196,17382,2027,2688,934,-1184,-3012,127,167,-355
1197,17848,1964,2690,-1546,-668,-4640,-287,-43,-988
1198,18219,1959,2688,1424,-1444,-2954,-571,630,-1039
1199,18219,1915,2690,1316,682,-4202,-74,-411,-909
1200,18327,1906,2691,730,-602,-4736,-106,138,-820
1201,18327,2091,2689,620,-938,-4112,78,-440,-1018
1202,18410,1852,2690,1188,2802,-6336,-70,1072,-1534
1203,18410,2135,2689,1084,240,-5738,-19,230,-2919
1204,18422,1965,2689,1356,830,-5254,78,11,-1622
1205,18387,1834,2691,760,150,-4696,-215,-367,-1015
1206,18387,2184,2691,268,860,-3610,-300,-265,-293
1207,18243,1918,2690,690,224,-5244,-145,-275,-499
1208,18243,1941,2690,196,1454,-3050,-41,113,786
1209,18028,1945,2690,1462,616,-5450,136,471,-184
1210,18028,2032,2690,324,1758,-3570,-106,-437,-871
1211,17466,2075,2690,-128,254,-1780,178,-192,-909
1212,17107,1917,2690,-636,1658,-3928,214,-272,-2875
1213,17107,2009,2691,1000,1372,-7384,-90,1056,-490
1214,17047,1941,2690,1940,-450,-5112,98,-91,-2294
1215,17047,2025,2690,-912,406,-4110,543,195,-1006
1216,16964,1981,2688,1092,258,-4604,-80,74,-10
1217,16964,2019,2690,126,2,-4308,298,-274,-148
1218,16641,1962,2689,82,204,-3272,282,-11,-1684
1219,15768,2003,2689,-446,-750,-3522,-209,-456,-490
1220,15768,1966,2689,1406,-648,-5058,304,-234,-10
1221,15027,2052,2690,840,-38,-5434,-28,113,-705
1222,15027,1982,2690,-996,3234,-5996,-22,-237,-1290
1223,14608,2154,2688,4166,678,-4744,-387,-691,-835
1224,14524,1985,2689,-1120,6,-4004,110,-1403,520
1225,14524,2038,2689,-1002,1212,-4052,207,1084,-60
1226,14536,1980,2687,1050,-340,-4824,498,-866,718
1227,14536,2011,2688,-2042,266,-6350,-351,128,1266
1228,14524,2061,2688,-1538,-828,288,-371,-20,2693
1229,14524,2088,2688,-1058,792,-4092,-119,218,1812
1230,14441,2035,2688,590,1722,-5046,194,-34,809
1231,14441,1951,2688,-600,-94,-3912,527,198,2006
1232,14130,2036,2691,510,542,-4080,36,338,2737
1233,13939,1877,2689,-558,-1630,-2984,-238,-599,1381
1234,13939,2036,2689,66,-1988,-5314,766,1043,2825
1235,13879,2057,2689,-870,690,-4022,27,65,2280
1236,13879,2060,2690,-1554,646,-6380,2276,411,-812
1237,13891,1912,2690,-958,1274,-2254,-9,-173,2038
1238,13950,1931,2687,-1870,-454,-4616,143,33,2156
1239,13950,1997,2689,-794,1352,-3570,-57,363,1741
1240,14106,2071,2691,-1424,-204,-4108,-29,-5,771
1241,14106,1973,2690,-1834,868,-3072,-74,323,1213
1242,14309,2002,2689,-914,668,-1790,-200,-12,971
1243,14309,1937,2689,-764,596,-2916,650,-246,1166
1244,14417,1938,2690,-980,-338,-4156,233,-380,1540
1245,14345,1974,2691,-682,1496,-6052,-503,-313,1977
1246,14345,2028,2689,122,-454,-2878,-238,-61,2416
1247,14202,1980,2689,-934,1032,-4092,-48,576,2074
1248,14202,2029,2690,-1538,2588,-5720,443,338,2483
1249,14082,1983,2690,-1624,2340,-7616,-132,313,1449
1250,13950,1987,2692,-2054,-86,-3068,-490,297,2504
1251,13950,1940,2688,-1826,3760,-4368,-619,-726,2233
1252,13903,1904,2689,-294,2288,-5622,-64,-21,1316
1253,13903,2367,2691,-1750,472,-1808,885,-18,3730
1254,13879,1606,2690,-1280,750,-4798,537,328,1502
1255,13879,2168,2687,800,-252,-2018,-223,-780,1714
1256,13915,1886,2688,-2048,-2062,-2856,-6,449,1844
1257,13939,2000,2690,-1174,466,-4076,-99,363,957
1258,13939,2032,2688,-868,-782,-6974,-180,-783,2003
1259,14058,2014,2690,-728,-840,-6782,84,169,1336
1260,14058,2053,2689,610,-410,-3280,27,-462,1720
1261,14142,1978,2688,208,2384,-6078,-409,1,2044
1262,14142,2155,2688,-960,-324,-1212,101,462,921
1263,14142,2134,2691,-624,3606,-7946,198,189,1561
1264,14524,1938,2689,-2174,-1834,-934,-22,113,1714
1265,14524,1952,2689,-2096,-1440,-3158,508,-234,1906
1266,14728,1969,2689,-1448,1090,-3324,-125,621,1552
1267,14728,2282,2689,930,1568,-3610,-12,-637,2430
1268,15062,1873,2692,-370,-1474,-4054,23,-56,1720
1269,15062,1931,2689,-634,188,-2464,-461,78,3842
1270,15122,1886,2689,162,200,-3456,-151,-907,1850
1271,15218,2023,2689,-1044,778,-4980,211,446,1549
1272,15218,2009,2690,12,70,-5588,-277,767,1537
1273,15349,1997,2688,-148,-1738,-2992,-6,268,1092
1274,15349,2104,2690,-910,858,-5056,-316,713,2189
1275,15337,2019,2691,136,-820,-1958,410,-145,903
1276,15337,1908,2690,-180,-1590,-4692,204,26,1879
1277,15337,2007,2691,1228,-1334,-8256,326,-542,-2306
1278,15337,1914,2690,-1098,-790,-4968,-86,-377,992
1279,15337,1976,2687,154,224,-3596,-261,74,1157
1280,15349,1967,2691,100,668,-5874,-222,900,3085
1281,15349,2142,2691,72,-86,-2882,211,1068,2212
1282,15349,1846,2690,-908,-802,-2604,-222,144,2201
1283,15337,1969,2691,46,-1968,-4552,-268,337,1726
1284,15337,2008,2689,302,528,-5930,-229,-94,1626
1285,15337,2087,2691,-1836,1190,-3158,-377,84,1726
1286,15337,1955,2689,-762,-2052,-2076,449,-21,1829
1287,15385,1899,2691,342,-2116,-3048,479,-706,1384
1288,15385,1997,2690,-1560,-1410,-4100,21,-62,1476
1289,15565,2015,2690,-34,1616,-7098,-420,-256,1083
1290,15756,1937,2690,-704,1780,-5464,-64,404,591
1291,15756,2091,2688,726,1658,-6748,49,360,927
1292,16163,1979,2690,-950,1222,-1922,262,189,1458
1293,16163,2022,2692,1228,784,-5184,101,948,1198
1294,16569,1986,2690,1454,1674,-3826,-300,128,276
1295,16569,2023,2692,-992,-904,-3954,20,-570,182
1296,16569,1983,2691,674,-922,-4318,311,960,84
1297,17011,1992,2690,1140,-312,-3808,-68,-603,632
1298,17011,2053,2690,-2630,318,-4326,10,-154,1122
1299,17035,1892,2690,-234,-936,-1390,16,696,-388
1300,17035,2007,2691,-702,-430,-1606,-70,-192,798
1301,17035,1987,2690,-1552,406,-2798,317,522,-1607
1302,17035,2081,2691,358,666,-3326,320,122,-223
1303,16988,1881,2689,-526,-1052,-4176,56,-161,-240
1304,16988,1908,2689,-1198,774,-4172,-360,-710,34
1305,16988,1902,2690,-940,-576,-2404,-190,-250,173
1306,16988,1968,2690,1348,3510,-7704,227,-68,-1115
1307,16988,2289,2689,-1990,216,-3310,-41,5,-596
1308,16988,1761,2690,-868,2010,-3214,81,294,37
1309,17000,2135,2690,-510,-636,-3548,-55,-552,-367
1310,17000,1978,2689,-746,-2118,-3270,36,-56,-275
1311,16988,2032,2690,-1032,-972,-1694,140,-72,-187
1312,16988,2040,2692,372,-2242,-4354,39,541,208
1313,17000,1957,2690,684,-886,-3632,298,309,-207
1314,17000,1994,2690,-336,-442,-6772,91,659,2130
1315,17000,1948,2689,-410,-564,-4888,58,414,-31
1316,17000,1996,2689,1652,-1498,-5716,36,-777,995
1317,17000,1996,2689,114,1434,-3622,-170,-135,-125
1318,16988,2075,2690,-222,-322,-5594,-77,506,-207
1319,16988,2026,2689,28,1860,-5038,81,-256,108
1320,16988,1995,2690,-308,1416,-2950,4,576,152
1321,16988,1950,2690,498,-564,-4856,-74,-215,137
1322,17000,1972,2689,904,-420,-5124,382,-659,344
1323,17000,2070,2689,-374,222,-4380,-361,583,40
1324,17000,2066,2689,220,744,-5406,-591,-545,962
1325,17035,2035,2690,322,3470,-5880,382,-211,199
1326,17035,2014,2689,-740,1624,-4226,-93,-211,-711
1327,17035,1975,2690,-770,-1156,-3132,10,62,494
1328,17035,1933,2689,-240,346,-5372,-209,11,-154
1329,17035,2032,2690,-932,-1404,-1272,-645,-615,361
1330,17047,1966,2690,812,-1318,-2070,20,608,662
1331,17047,1986,2690,-854,1504,-1986,537,-30,-455
1332,17035,1968,2691,-2244,1376,-2776,485,-199,137
1333,17035,1932,2691,-758,-656,-5898,269,1021,-364
1334,17035,1893,2689,-340,388,-4742,-503,68,264
1335,17035,2007,2688,-686,-230,-1496,-34,-404,329
1336,17000,2033,2691,414,642,-3342,310,-622,753
1337,16964,1925,2690,234,4890,-4688,-490,-52,279
1338,16964,2136,2688,596,1886,-6104,-125,-272,417
1339,16976,1954,2690,556,2386,-5818,59,-129,40
1340,16976,1978,2690,-222,418,-2058,-70,497,594
1341,16976,2194,2690,40,4624,-2856,-160,-642,241
1342,16976,1875,2690,-912,1578,-796,175,-688,-69
1343,16976,2201,2688,1714,4430,-6490,-332,563,135
1344,16808,1897,2689,594,-478,-4920,-83,-332,-523
1345,16808,2239,2689,-2868,1508,-106,-267,-446,868
1346,16545,1997,2690,-296,2712,-5730,217,671,-479
1347,16545,2123,2689,-2406,962,-3760,121,-528,500
1348,16174,2211,2689,-626,710,-3100,-939,503,-316
1349,15708,2123,2690,234,1060,-4636,-138,107,403
1350,15708,2141,2689,-234,1364,-5068,-367,81,-408
1351,15146,2121,2691,276,-1554,-3868,32,71,-196
1352,15146,2213,2689,-788,-498,-3624,901,722,733
1353,14823,1955,2689,1016,-568,-4492,42,525,208
1354,14823,1847,2689,-2354,-822,-2920,-3,274,152
1355,14477,2120,2688,12,-1180,-2186,7,-1142,52
1356,14297,2193,2690,-4152,-266,-910,-429,-659,544
1357,14297,1935,2691,-3082,-384,-4624,42,293,1186
1358,14106,2274,2688,106,48,-3984,-258,-170,1346
1359,14106,2037,2689,-812,-496,-4290,-34,-522,2419
1360,13962,2261,2690,610,-1298,-6506,-141,1021,3049
1361,13962,1907,2688,-412,458,-3524,559,278,350
1362,13950,2212,2689,130,-142,-6696,-490,348,2769
1363,13974,1956,2690,-570,-1690,-4686,169,964,1776
1364,13974,2153,2688,-908,-2054,-2744,-161,-129,2439
1365,13974,2093,2690,-850,-510,-2114,159,-81,2439
1366,13974,2117,2689,-2190,282,-3066,304,-186,3718
1367,14070,1940,2690,-946,110,-2798,175,240,1956
1368,14118,2012,2689,-1546,-1222,-4444,27,107,2047
1369,14118,1962,2691,-1936,438,-2896,-461,376,2654
1370,14118,2095,2688,-890,-666,-4346,-699,135,6339
1371,14118,2058,2689,-420,-2024,-1592,-35,-208,1929
1372,13974,2046,2689,-768,-528,-3236,145,-526,2020
1373,13974,2184,2690,-2182,1084,-2444,346,-516,1072
1374,13879,2102,2689,528,1176,-6048,98,231,2649
1375,13783,2171,2688,-1462,-1178,-5590,-532,5,3315
1376,13783,2093,2689,-1714,-214,-3548,-448,888,3150
1377,13795,2241,2690,-20,-1368,-5564,-9,246,2525
1378,13795,1992,2690,-1438,1662,-3432,-455,1211,3011
1379,13783,2200,2691,-2430,-154,796,-325,-497,3155
1380,13783,2218,2688,-2642,78,-4808,145,176,3712
1381,13867,1823,2689,-444,-1082,-4180,-144,310,2124
1382,14010,2059,2689,-1644,-2300,-918,-284,-364,2633
1383,14010,2014,2690,-1390,-640,-4088,-54,452,2696
1384,14202,2357,2691,-864,494,-3374,-225,449,3733
1385,14202,1973,2689,-2242,-1548,-238,201,567,2286
1386,14441,2180,2689,-1028,3944,-4954,85,278,2021
1387,14441,1957,2690,224,408,-4814,98,-646,2422
1388,14572,2234,2690,-1836,1838,-2274,104,-314,1410
1389,14596,1814,2691,-346,378,-5696,-238,-100,1965
1390,14596,2122,2689,630,1578,-4940,-161,-56,3813
1391,14764,2077,2689,2,-98,-6290,507,1125,2798
1392,14764,1988,2689,-190,-828,-5448,-141,274,2466
1393,15051,2147,2688,-2418,114,-3002,-164,446,2631
1394,15134,2053,2688,504,-962,-3486,-154,573,1487
1395,15134,2201,2689,-208,-1614,-3632,-74,138,1738
1396,15254,2112,2689,146,754,-1752,553,233,1832
1397,15254,2159,2690,-746,3016,-6472,621,-75,1484
1398,15720,2128,2689,-322,-1380,-4828,213,29,2896
1399,15720,2189,2690,282,-1542,-2820,-80,-154,2902
1400,15947,2032,2690,758,-122,-5250,123,-27,1010
1401,16402,2118,2690,-172,-1764,-1398,905,-818,633
1402,16402,2121,2691,-578,126,-1814,107,-751,945
1403,16904,2136,2691,60,-36,-3796,227,-526,276
1404,16904,2067,2688,2550,-228,-5170,-438,1799,627
1405,16976,2074,2689,5720,-1222,-5596,-57,812,1496
1406,16976,1800,2690,348,-838,-6266,-148,-577,249
1407,16964,2207,2691,1172,-1224,-3090,514,1056,506
1408,16988,1822,2691,726,-1938,-6104,220,373,-467
1409,16988,2008,2690,950,84,-4092,-93,208,500
1410,17000,2058,2690,118,-720,-1856,-303,132,1396
1411,17000,2052,2689,52,-2116,-4298,275,-612,673
1412,17035,2002,2691,-198,62,-4402,175,-37,824
1413,17035,1943,2690,-174,1344,-3936,417,-148,792
1414,17035,2045,2690,-1046,-1362,-3426,-19,363,446
1415,17035,1967,2690,862,1144,-5070,208,-871,-876
1416,17035,2090,2690,-786,-112,-5050,30,-170,-355
1417,17047,1900,2690,196,-484,-4268,65,-805,-711
1418,17047,2070,2688,532,-234,-3550,-86,132,196
1419,16988,2030,2689,-428,-2596,-4264,-80,-506,-302
1420,16988,1996,2691,-28,-2012,-4858,21,669,-393
1421,16976,2061,2689,-404,438,-3004,205,-205,633
1422,16976,2058,2691,254,-618,-3696,81,643,-390
1423,16976,2232,2689,1360,2754,-4422,518,269,-1127
1424,16964,1970,2691,956,-472,-3588,482,-779,-1115
1425,16964,1929,2689,-228,-2018,-7032,162,-472,-3184
1426,16964,2019,2689,-1528,704,-3136,188,703,403
1427,16964,2055,2689,-14,-22,-1782,156,-637,149
1428,16964,2043,2689,-922,-470,-3082,-116,-382,-63
1429,16976,1956,2690,528,252,-1804,246,-53,-272
1430,16976,2037,2689,1208,-44,-8314,278,-75,-2799
1431,16964,2249,2691,170,940,-3252,-15,720,-66
1432,16964,1921,2689,328,-1196,-5844,-38,255,-552
1433,16964,1968,2690,856,412,-5770,7,818,-260
1434,16892,2068,2689,-124,-1420,-2246,188,-414,31
1435,16892,1895,2690,-1344,-1332,-4064,121,526,-431
1436,16581,2071,2690,520,700,-4964,159,-545,-51
1437,16581,2014,2689,526,-1366,-4962,27,132,-290
1438,16031,1981,2690,-564,1212,-3362,318,-36,-1233
1439,16031,1871,2689,400,1262,-4616,298,119,-367
1440,15624,2072,2688,136,1354,-3870,-135,154,2401
1441,15051,2227,2690,-2102,-536,-3098,-28,-452,373
1442,15051,1930,2689,-1910,1618,-2150,-887,62,1499
1443,14584,2064,2690,-2288,-444,-4282,-706,-595,594
1444,14584,1975,2690,-2934,1256,-2522,-128,-1304,1089
1445,14082,2018,2689,-624,1480,-7282,-9,1005,-48
1446,14082,2015,2690,1654,92,-8038,-38,230,-89
1447,13735,2103,2691,576,-786,-3558,-158,-504,830
1448,13412,2004,2689,-2120,388,-4346,-331,69,1414
1449,13412,2085,2690,-50,-1348,-4676,-199,-110,1891
1450,13257,2004,2691,-1296,-2202,-3758,776,100,921
1451,13257,2002,2689,-1512,-702,-4462,236,-68,2831
1452,13149,2214,2691,-1638,1530,-6760,-881,414,2784
1453,13125,1979,2688,-2512,1128,-4184,-812,-376,2551
1454,13125,2037,2689,-1546,-1668,758,-96,-912,-1071
1455,13066,1994,2691,-558,1038,-3600,-32,141,2307
1456,13066,2019,2690,-148,1542,-3070,-400,480,2686
1457,12803,2088,2688,-844,-1926,-4414,-283,437,2896
1458,12803,2014,2689,-1312,-1566,-4098,-164,123,2463
1459,12492,2022,2689,-1628,-1794,-4014,-316,-405,2271
1460,12217,2140,2689,-1166,-24,-2132,-254,243,3170
1461,12217,1962,2691,-1728,2304,-3402,-238,-487,3279
1462,11966,2216,2688,-1820,-618,-3312,272,694,2985
1463,11966,1791,2690,-2388,1408,-4632,240,-910,3456
1464,11786,2221,2690,-2584,546,-3430,-1510,160,3114
1465,11786,1736,2690,-830,-834,-3896,-203,-300,3191
1466,11679,2280,2690,-1674,1346,-5422,-274,-110,2333
1467,11631,1732,2689,-384,-1660,-3218,-154,167,3928
1468,11631,2273,2690,-1566,-1076,-1296,511,-2,2018
1469,11643,1833,2690,-1150,-2396,-6062,459,144,3550
1470,11643,1947,2688,-878,-2238,-4550,-112,-59,4149
1471,11643,1928,2690,-1258,-1608,-3726,27,584,2911
1472,11643,2188,2690,-1090,-1766,-3114,301,72,4326
1473,11643,1842,2690,-1798,-2218,-2700,7,329,3768
1474,11655,1994,2690,-1504,-2108,-3204,517,-221,5387
1475,11655,1934,2690,-2964,-1692,-4268,-209,-268,4944
1476,11750,2014,2689,-270,374,-6088,476,1041,3064
1477,11750,2036,2689,-1262,-1860,-3522,140,-446,4281
1478,11738,2006,2689,-3524,1358,-1590,353,1100,4499
1479,11738,2047,2691,-1998,-252,-2344,272,135,4547
1480,11738,2097,2689,-3020,-1278,-3956,136,-196,4443
1481,11750,1992,2690,-1924,-470,-2204,-209,1097,5440
1482,11750,2043,2689,-2460,426,-3000,172,-421,4467
1483,11738,2009,2689,-2210,-932,-1606,-22,681,4349
1484,11738,1988,2689,-1030,1276,-5482,-61,-116,4284
1485,11750,1950,2689,-986,1746,-4726,359,30,3270
1486,11786,2108,2691,-2470,3142,-3872,-300,141,3645
1487,11786,1975,2690,-446,-1670,-3798,275,-65,4113
1488,11870,2014,2690,-990,2096,-5708,-235,-18,3931
1489,11870,2037,2689,-1780,286,-5068,78,-142,3639
1490,11930,1976,2690,-110,-1804,-3882,-225,818,-393
1491,11930,1954,2689,-1014,-710,-5134,-271,-132,5124
1492,11966,2112,2690,-260,44,-5436,94,192,3388
1493,11978,2000,2689,-1206,-106,-5472,385,176,3963
1494,11978,2020,2690,-1406,-1668,-1748,-199,-56,5233
1495,11966,2046,2689,-1574,1306,-3580,259,589,4334
1496,11966,2052,2690,74,-278,-3392,-103,-472,4225
1497,11966,2080,2689,-1808,-554,-2402,-74,-325,4252
1498,11966,2018,2690,-2516,290,-5654,27,363,3883
1499,11966,2066,2690,-236,58,-3104,349,230,4125
1500,11966,2071,2689,-2168,456,-4722,13,414,4340
1501,11966,1939,2688,-430,-506,-3580,-19,-678,3745
1502,12001,2011,2690,448,-2068,-4166,-41,446,4063
1503,12001,1996,2688,8,-460,-5394,-51,725,4399
1504,12025,2086,2688,66,658,-4206,-332,163,4090
1505,12025,2057,2691,-592,-96,-4718,646,-91,4216
1506,11966,1993,2691,-2514,846,-4554,-357,-49,4915
1507,11894,1944,2688,-292,1600,-4982,-361,595,5086
1508,11894,1953,2689,-2696,-190,-1504,-71,391,3986
1509,11882,1957,2690,-1144,-566,-2788,-51,569,1870
1510,11882,2048,2691,-1518,964,-1862,291,-634,3901
1511,11810,1772,2691,-3328,62,-3894,298,-262,3105
1512,11762,2169,2688,-1248,-1652,-6174,-22,-608,3465
1513,11762,1763,2687,-1790,-1024,-1742,-116,233,4656
1514,11738,2015,2689,-530,-72,-3788,-306,167,3919
1515,11738,2200,2691,-926,3148,-2790,-532,1281,3580
1516,11643,1889,2692,-2458,2730,-4126,233,299,4198
1517,11643,1946,2690,-2180,4,-4654,43,78,3913
1518,11320,2016,2690,-2322,1606,-5802,-25,-643,3998
1519,10973,2132,2690,-196,2622,-8346,63,-710,3975
1520,10973,1849,2690,-968,-2496,-1926,711,300,3715
1521,10746,2132,2691,-254,-904,-6126,372,818,4152
1522,10746,1968,2691,-780,128,-3042,107,-666,4753
1523,10638,2097,2690,-3262,-1372,-3130,-167,983,4246
1524,10638,2077,2689,-3794,-2240,-4012,233,-4,4225
1525,10519,1999,2690,-1850,-1078,-1026,297,436,4089
1526,10500,1993,2690,-2752,-2394,-7808,49,-218,5418
1527,10500,2150,2690,-2848,-1044,-1590,-245,-2,5496
1528,10500,1825,2689,-1576,-1598,-3618,-131,606,4670
1529,10500,2203,2689,-2628,3322,-3836,-267,-681,6618
1530,10500,1901,2691,862,-672,-4962,-96,309,4809
1531,10500,1927,2691,-1910,1134,-2074,1233,-310,5318
1532,10500,1996,2691,-2780,810,-6046,201,563,4747
1533,10500,2162,2690,-2790,1320,-3150,-351,46,6274
1534,10500,1941,2689,-2544,-536,-6822,-464,-999,4706
1535,10500,1964,2687,-2254,-610,-4460,-535,-351,5227
1536,10500,2014,2690,-2246,-1832,-5488,-106,-107,5490
1537,10500,1940,2689,-2016,-2930,-416,-38,459,4641
1538,10500,1998,2689,-932,-1576,-1936,246,-90,4968
1539,10500,1950,2690,-1426,1684,-3848,-861,100,8410
1540,10500,2032,2689,-2938,-696,-4088,-183,-126,5840
1541,10500,1885,2688,-3304,2088,-6408,776,-202,4936
1542,10500,1817,2689,-32,996,-3258,327,94,3362
1543,10500,2009,2689,-1066,-784,-3234,91,783,3872
1544,10531,1916,2690,-602,128,-3444,294,1417,5271
1545,10626,2073,2690,-766,848,-3466,-216,-542,4797
1546,10626,1958,2690,-566,-2324,-5496,366,-497,4346
1547,10614,1865,2690,-860,-726,-5722,-170,-602,4662
1548,10614,1842,2691,-2598,1032,-3648,-548,-265,4496
1549,10626,1963,2689,-4252,1500,-4588,-61,703,5410
1550,10626,1914,2689,-1148,550,-2314,114,484,4314
1551,10638,1919,2690,-1982,1624,-3804,-287,249,4384
1552,10854,1988,2690,-1374,-360,-4070,120,268,3827
1553,10854,1894,2689,-2020,1614,-4438,365,-180,3456
1554,11296,1982,2692,-2736,1070,-3554,-222,-358,4718
1555,11296,1751,2689,-2370,690,-2612,608,395,2713
1556,11691,1871,2689,-1888,1450,-946,1399,81,2707
1557,11691,1879,2689,-296,-422,-2492,333,201,3727
1558,12217,2031,2690,1246,-1492,-7656,-277,-183,4538
1559,12862,2118,2689,-1916,810,-4750,-329,782,4829
1560,12862,1986,2689,890,506,-4716,-247,-106,2327
1561,13711,1827,2690,10,-674,-6798,-41,-532,3223
1562,13711,1748,2690,2208,1272,-4352,-206,300,3244
1563,14453,2004,2691,-400,186,-4306,-119,-535,3117
1564,14453,1929,2690,-264,-1100,-2298,-323,715,3005
1565,15218,1722,2690,1320,-1090,-2056,223,151,1764
1566,16067,1990,2690,460,-868,-4094,585,144,1705
1567,16067,1862,2690,1268,456,-2594,-232,141,1237
1568,16736,1710,2690,-1188,-596,-4310,114,62,627
1569,16736,2006,2690,868,-308,-4702,-429,916,238
1570,16964,1777,2690,126,-640,-3054,81,-942,-390
1571,16964,1864,2690,-1096,1742,-3714,291,195,235
1572,16964,1970,2691,1944,824,-6146,-22,421,-134
1573,16964,1866,2691,596,-502,-2630,333,-878,653
1574,16964,1933,2689,-550,1112,-3502,65,192,-358
1575,16976,1967,2689,-360,196,-3318,-364,-21,158
1576,16976,1929,2689,134,-1428,-3852,-135,-720,-579
1577,16964,1947,2689,-434,-946,-6168,36,405,851
1578,16964,1871,2689,-420,-288,-3536,-387,-107,96
1579,16964,1851,2690,-662,1244,-2868,43,65,-166
1580,16964,1899,2690,288,2064,-4558,398,316,-425
1581,16964,1853,2690,-1122,-212,-2922,152,103,-278
1582,16976,2079,2692,1250,722,-5982,543,424,-231
1583,16976,1774,2689,1376,-260,-6672,-245,-142,791
1584,16964,2020,2689,-86,-3946,-4200,-429,-201,1700
1585,16976,1550,2689,182,-876,-2836,172,240,329
1586,16976,1979,2689,-1068,256,-5470,36,-103,-119
1587,16976,1727,2690,176,306,-4490,20,192,-249
1588,16976,1928,2689,34,758,-4900,-264,-250,429
1589,16964,1880,2689,118,1380,-6754,-251,574,426
1590,16964,2043,2689,478,-594,-3702,449,-386,90
1591,16868,1838,2690,-930,1466,-3748,243,186,-593
1592,16402,1777,2691,476,1956,-5556,-51,103,612
1593,16402,2071,2689,-1520,1106,-5470,-361,173,833
1594,15708,1770,2689,-354,-526,-3986,-328,529,406
1595,15708,1958,2690,-568,1194,-2990,104,-310,311
1596,15062,1831,2689,-870,-2056,-2320,168,306,547
1597,15062,1839,2690,1302,-1306,-1304,672,-230,-1475
1598,14453,1945,2691,-1180,166,-5354,-384,388,-721
1599,13879,1899,2689,-628,1274,-8258,-135,-796,553
1600,13879,1892,2689,-5222,770,-5974,-471,878,1476
1601,13329,1931,2689,-974,-256,-2510,456,74,798
1602,13329,1887,2687,-3102,-828,-5942,420,-215,2616
1603,12898,1919,2690,-1204,990,-3770,-603,783,3621
1604,12480,1823,2690,-2096,-932,-1264,166,-398,1767
1605,12480,1912,2690,-716,-1330,-1784,104,-529,2301
1606,12276,1825,2689,-2000,-204,-4660,-406,-666,3777
1607,12276,1967,2690,-2784,-116,-3048,175,-215,4004
1608,12145,2015,2689,-1058,1706,-6378,569,-469,1004
1609,12145,1743,2688,-714,-182,-2624,-342,-53,4862
1610,12085,1879,2689,-36,-908,-4432,220,-84,3830
1611,11990,1883,2689,-720,-1232,-2680,-255,471,3181
1612,11990,1886,2690,-2370,66,-1916,-480,-297,3067
1613,11870,1960,2690,-1208,-1418,-5228,-316,179,3450
1614,11870,1877,2690,-1548,-478,-3284,-96,-789,3951
1615,11738,1845,2688,-1508,1768,-4150,-225,-202,3816
1616,11738,1802,2688,-530,1350,-4218,223,-132,4732
1617,11726,2102,2690,-104,36,-5066,388,316,2245
1618,11726,1822,2689,-1842,3422,-4890,-542,430,3592
1619,11726,1957,2690,-1476,-1664,-1766,62,-110,3152
1620,11750,1800,2692,-2000,-212,-3606,140,-526,3326
1621,11750,2074,2690,-668,-1252,-6314,-494,191,4767
1622,11738,1769,2690,-1402,-1136,-5228,120,-253,3615
1623,11738,1838,2691,-1856,-1800,-5062,-587,-218,1414
1624,11750,1903,2689,-1820,-3264,-1364,1,135,4028
1625,11738,1889,2689,-1830,-1084,-1504,-119,211,3462
1626,11738,1892,2691,-1352,362,-2706,-41,-69,4331
1627,11750,1874,2690,-2494,-464,-4378,-184,480,3308
1628,11750,1917,2688,-1038,-708,-2534,-64,-132,3934
1629,11738,1929,2690,-110,-1872,-5036,-248,151,4408
1630,11738,1934,2690,-2042,-560,-2408,311,328,3854
1631,11810,1885,2691,-1196,-1262,-2882,140,-405,3978
1632,11870,1884,2690,-616,-766,-5870,-383,279,5410
1633,11870,1786,2690,-252,-2330,-6900,-63,-278,3792
1634,11882,2067,2690,-504,-1522,-6768,-145,465,2807
1635,11882,1588,2690,272,-1030,-3044,-312,532,3869
1636,11870,1979,2690,-1044,742,-3820,249,-56,3335
1637,11882,1922,2689,-1008,-414,-3782,-128,-161,3559
1638,11882,1778,2689,-588,-1618,-6046,169,147,2386
1639,11882,1867,2690,-638,-218,-2550,-187,-18,4021
1640,11882,1849,2691,176,-378,-4880,88,30,3291
1641,11870,1788,2690,-1464,1084,-6296,-161,484,3559
1642,11870,1922,2690,-3440,140,-1604,78,367,3680
1643,11870,1852,2691,-610,-138,-3986,349,589,2931
1644,11966,1892,2691,-1720,142,-4562,-574,-103,3471
1645,11966,1842,2689,-2142,-1980,-2954,91,-173,3185
1646,12013,1984,2690,-944,-762,-3932,58,315,3771
1647,12013,1855,2691,-914,762,-1986,501,-262,3391
1648,12109,1896,2690,-1840,608,-4748,217,-433,3533
1649,12109,1897,2689,-2078,1178,-3186,-367,325,2439
1650,12217,1905,2689,-2134,914,-434,72,192,3409
1651,12456,1880,2689,-780,-1364,-1770,318,-265,2339
1652,12456,1939,2689,-700,1164,-3182,259,-196,3665
1653,12683,1904,2690,-1822,-1308,-6192,272,-875,3945
1654,12683,1899,2690,-3096,-410,-1382,265,233,5260
1655,13054,1900,2689,-1784,1524,-4848,201,386,4317
1656,13054,1847,2688,-22,-378,-5072,101,211,3742
1657,13508,1880,2689,-2360,-2198,-3616,-128,-281,3524
1658,13879,1839,2689,232,-466,-3316,-425,751,5089
1659,13879,1785,2689,-942,-332,-4484,-12,-342,2937
1660,14417,2161,2691,-1838,-1126,-4328,59,-91,3774
1661,14417,1560,2689,-90,-1206,-2958,349,706,2920
1662,15182,1939,2690,-1916,-1718,-5502,-22,163,252
1663,16318,1754,2691,1790,-1278,-2104,-145,770,2091
1664,16318,1884,2690,1056,394,-5022,-154,74,2286
1665,17047,1925,2691,2566,-134,-2026,478,249,1177
1666,17047,1834,2692,1278,-240,-5880,452,-1028,37
1667,17011,1911,2692,1278,1062,-2974,285,573,291
1668,17011,1730,2689,-110,-966,-2846,-84,-796,63
1669,17035,1905,2691,-220,-2148,-2776,75,462,-222
1670,17047,2101,2691,570,-700,-2248,382,-110,-381
1671,17047,1892,2691,130,-1182,-3862,65,-243,317
1672,17047,1854,2689,1832,-814,-4428,-280,-145,916
1673,17047,1929,2690,536,1602,-4822,253,-259,-45
1674,17000,1914,2689,958,838,-3108,304,529,-190
1675,17000,1952,2690,1232,4178,-6170,-48,-291,23
1676,17000,1993,2691,-2990,1500,-3030,207,338,-962
1677,17000,1893,2689,-518,-1150,-3848,-477,116,2781
1678,17000,1865,2688,-1046,-1052,-4518,-177,157,1240
1679,16988,1975,2689,-14,-824,-5520,36,922,-151
1680,16988,1977,2690,-1270,-552,-3080,-57,-240,-201
1681,16988,1973,2689,-94,1052,-3264,1,633,-137
1682,16988,1901,2688,-160,416,-2982,-25,186,-257
1683,17000,1927,2688,962,-714,-3684,-232,210,-264
1684,16988,1932,2690,304,-624,-2818,466,541,-664
1685,16988,2014,2689,-280,966,-6802,91,-694,-1395
1686,17000,1917,2691,-1270,-718,-3972,136,318,228
1687,17000,1898,2689,-880,-414,-4368,110,-314,-55
1688,16988,1980,2690,-526,1680,-3152,81,-205,-428
1689,16988,1784,2690,914,896,-4948,240,262,-626
1690,16988,1981,2689,-466,-1094,-6086,100,195,-638
1691,16964,1832,2690,-484,-922,-4474,-174,-392,67
1692,16964,2122,2689,-914,218,-5314,-509,983,438
1693,16964,1726,2689,-26,-1286,-3850,-268,465,273
1694,16964,1929,2689,426,3300,-7436,-148,-88,500
1695,16916,2015,2689,-82,266,-2908,546,596,-51
1696,16760,1850,2690,-1880,964,-4014,-219,68,-670
1697,16760,1941,2691,-464,116,-4808,-280,532,-204
1698,16629,1944,2691,212,154,-4734,-28,-145,-199
1699,16629,2017,2689,72,-2020,-5810,149,186,173
1700,16091,2014,2689,-254,-592,-1266,459,-646,653
1701,16091,2075,2690,-524,1482,-2012,391,-91,-369
1702,15361,2075,2688,-532,-104,-2894,-63,-579,877
1703,14919,2071,2690,-536,2790,-5346,-148,-329,-201
1704,14919,2105,2690,-976,-2052,-3612,-106,-154,361
1705,14465,2139,2686,-892,-2894,-1884,-190,14,164
1706,14465,2186,2689,-3268,-672,-1636,579,-402,1284
1707,14178,2193,2689,-1800,-180,-5646,-22,157,1322
1708,14178,2061,2689,238,-2538,-2808,-90,506,910
1709,14070,2035,2689,-1690,-1628,-4828,3,630,1572
1710,13783,2081,2688,-812,-1194,-3742,-116,233,1481
1711,13783,2147,2691,854,34,-3722,-25,-290,1514
1712,13508,2107,2690,-1970,2660,-3746,133,306,1537
1713,13508,2240,2689,-1244,-794,-3080,169,-548,3341
1714,13245,2151,2690,-852,-104,-3954,701,-112,3023
1715,13245,1652,2690,-314,-1546,-4016,227,176,2324
1716,13149,2050,2689,-1800,-840,-3706,127,-189,2425
1717,13161,2043,2689,-894,-2762,-4160,16,531,2731
1718,13161,2005,2689,334,-1292,-1994,508,-395,3704
1719,13245,1892,2690,-212,-1614,-4166,-99,332,2531
1720,13245,1978,2690,-520,-2202,-5322,-677,-690,2183
1721,13532,2026,2688,-316,-1456,-4910,-151,-300,3120
1722,13783,1993,2690,-650,378,-3714,1596,11,-3116
1723,13783,1918,2690,-2130,-260,-4474,56,916,2189
1724,13915,1865,2689,-1140,-1932,-3978,127,36,2041
1725,13915,1950,2690,-1078,-1366,-3112,468,756,1784
1726,14106,1960,2689,300,-906,-3524,-25,-173,3211
1727,14106,2000,2689,-1800,-1532,-4148,-758,221,3471
1728,14548,2091,2691,-1140,-2346,-3916,-342,-427,3603
1729,15134,1885,2688,-524,-2914,-3986,-248,-453,2528
1730,15134,2058,2689,-1288,398,-2940,304,-161,3200
1731,15983,1984,2690,-1144,242,-3830,511,272,3032
1732,15983,2185,2690,-4986,-938,-4788,88,548,3155
1733,17000,1946,2688,1322,270,-2632,-613,779,3883
1734,17000,2091,2688,2886,-288,-3266,-816,-329,1944
1735,16964,1879,2691,1152,1048,-5446,-29,-361,1139
1736,17047,1952,2694,1470,-28,-2590,527,-548,653
1737,17047,1986,2690,930,584,-5398,382,5,927
1738,17047,2095,2689,-94,306,-6534,104,538,5
1739,17047,1957,2689,-784,952,-3596,-164,373,-1999
1740,17011,2200,2690,164,-1092,-4194,-412,231,665
1741,17011,1878,2688,-1316,870,-3346,-61,87,297
1742,16988,2006,2689,-638,-396,-2540,239,42,28
1743,16988,1951,2691,-720,2254,-3988,-406,-18,11
1744,16988,2034,2690,-126,-450,-2330,-306,348,111
1745,17047,1924,2689,-1212,-300,-1992,-264,-377,-449
1746,17047,1991,2690,-864,-1502,-2316,-245,-681,-148
1747,17035,2120,2690,836,-1502,-5154,120,706,-971
1748,16964,1702,2690,-454,1726,-4762,7,-488,-178
1749,16964,2192,2689,-460,-26,-3794,233,519,-444
1750,16976,1658,2691,454,856,-2492,-229,97,5
1751,16976,2116,2691,590,-1456,-4392,-144,-1167,453
1752,16904,1794,2691,-124,-86,-4368,-38,24,379
1753,16904,2049,2691,900,-1280,-4150,-199,252,394
1754,16748,1916,2690,-118,-6,-3174,-86,-129,300
1755,16653,1986,2690,-346,1098,-5116,-493,128,594
1756,16653,2015,2691,1106,1350,-4492,-22,138,61
1757,16629,1940,2690,-644,678,-3860,-61,49,-101
1758,16629,2049,2690,544,802,-3104,-26,245,146
1759,16581,1972,2690,-636,-1324,-5610,482,-710,143
1760,16581,2052,2689,854,762,-5296,85,189,-89
1761,16342,2022,2690,-284,592,-1576,152,-161,801
1762,16043,2058,2689,-1580,490,-3896,39,205,-163
1763,16043,2003,2689,812,1340,-4540,-177,-24,-154
1764,15708,1987,2687,-1832,3140,-3726,-390,-456,-172
1765,15708,2019,2690,-360,2200,-856,-244,-81,397
1766,15517,2005,2689,-234,944,-4868,-96,-358,208
1767,15517,2019,2688,1888,-62,-3988,-15,-18,-3794
1768,15337,1976,2689,-282,1430,-6558,-99,-8,662
1769,15230,1954,2690,1116,-1680,-4868,724,-132,2177
1770,15230,2158,2690,-680,-368,-4854,101,-56,417
1771,14919,1946,2689,-440,208,-4998,317,-148,1095
1772,14919,1960,2689,412,1390,-5104,-284,68,1154
1773,14453,2059,2689,-236,26,-4854,313,-101,921
1774,14453,1778,2689,-918,-92,-3468,-34,-700,382
1775,14297,2094,2690,-1604,334,-4286,278,71,957
1776,14285,1815,2691,758,-1224,-4316,-9,875,1219
1777,14285,1910,2690,-2004,-880,-4736,207,-758,1257
1778,14417,2148,2689,-2540,-3438,-3168,227,614,880
1779,14417,1891,2688,88,-1872,-2344,456,-462,1661
1780,14680,2077,2689,-1622,220,-4808,437,-389,1337
1781,15110,1853,2690,-334,240,-3388,278,770,1658
1782,15110,2195,2690,-534,180,-7022,-67,-53,1994
1783,15876,1852,2690,224,-1408,-6494,256,471,1529
1784,15876,1887,2690,-222,-1426,-4196,78,760,2179
1785,17047,2024,2692,-1836,702,-6292,-435,421,2366
1786,17047,1932,2690,3068,-2634,-3576,-106,852,842
1787,17000,1984,2689,122,-1716,-1704,310,-91,-78
1788,17000,1946,2692,-1152,562,-552,-125,-132,2961
1789,17000,2110,2690,868,-1242,-3528,588,-593,676
1790,17035,1937,2690,-182,-504,-2892,81,-465,-72
1791,17035,2038,2689,576,-946,-6370,-57,122,111
1792,17047,1982,2689,592,1092,-5820,175,106,455
1793,17047,2003,2689,-1286,290,-3848,49,735,429
1794,17035,2057,2690,1506,-1938,-4086,781,680,1003
1795,17035,2057,2689,-1612,54,-5150,568,477,812
1796,17035,1988,2690,494,2494,-4908,-803,760,49
1797,17035,2098,2690,984,-1354,-2948,-232,-1065,205
1798,17035,1976,2689,1020,-2186,-6432,120,337,1036
1799,17000,2134,2692,-630,802,-4824,204,-1011,765
1800,17000,2021,2690,-1728,-608,-4006,152,354,972
1801,16988,1976,2689,-88,-2272,-1884,469,-338,126
1802,17000,1988,2690,-1108,-838,-4162,-154,-154,748
1803,17000,2088,2691,-570,-1326,-1104,46,-319,1437
1804,16976,2056,2689,686,746,-4224,-258,335,264
1805,16976,1997,2689,-392,-28,-3076,-144,-500,81
1806,16964,2049,2690,414,388,-5876,110,512,1210
1807,16964,1914,2691,-32,-1528,-6692,214,84,205
1808,16964,1965,2690,-208,1296,-3766,14,11,391
1809,16976,2002,2689,8,-208,-3322,240,-167,-69
1810,16976,2000,2689,578,228,-2864,-122,-126,116
1811,17000,1912,2689,270,628,-3982,169,-386,-1307
1812,17000,1948,2691,-184,700,-4684,178,-269,-797
1813,17047,1956,2690,64,520,-5164,-490,87,-641
1814,17047,2132,2689,-842,164,-5058,-216,210,113
1815,17047,1917,2689,496,506,-4266,-396,713,-720
1816,17047,2116,2689,-880,-234,-3622,-238,-40,-511
1817,17047,1925,2691,178,366,-3910,-116,344,-450
1818,17035,1856,2690,4,816,-2322,262,-167,-700
1819,17035,2022,2688,580,-160,-6122,98,357,-33
1820,17047,1937,2690,-1172,-674,-3430,-161,103,-263
1821,17047,2003,2689,-20,952,-3402,-332,-196,476
1822,17047,2139,2689,1090,486,-4702,-287,-208,235
1823,17035,1949,2691,728,-2456,-2944,149,-672,-149
1824,17035,2191,2691,-482,-2322,-3750,30,-431,-720
1825,17047,1848,2690,-316,914,-3870,304,-180,-658
1826,17047,1965,2691,248,838,-4072,-158,176,-543
1827,17035,1992,2688,1082,1884,-4836,-526,68,-299
1828,17047,2051,2690,124,1444,-4010,-890,-129,582
1829,17047,1921,2690,188,1332,-4610,-274,214,-968
1830,16988,1948,2690,96,1954,-3718,-425,-233,-148
1831,16988,2055,2688,50,-418,-5536,236,401,222
1832,17000,1716,2690,444,868,-4132,-238,796,-440
1833,16964,1980,2690,-1162,1070,-1552,-254,-497,-1265
1834,16964,2039,2689,416,1372,-3158,20,627,-517
1835,16976,1946,2691,-866,310,1012,4,-141,-935
1836,16976,1961,2689,1038,1696,-4112,-64,284,-461
1837,16964,1949,2691,202,1344,-3162,78,99,-161
1838,16964,2003,2690,-1436,1022,-2382,-267,255,-396
1839,16964,1984,2689,782,1728,-3712,-39,576,-541
1840,16976,2061,2688,446,894,-3266,127,-405,-272
1841,16976,2066,2689,1008,696,-3068,162,-459,-181
1842,16964,1999,2690,36,298,-6366,-112,-233,-346
1843,16964,2008,2689,362,-1166,-2328,52,268,-104
1844,16964,2046,2690,242,-88,-4320,-77,506,214
1845,16964,2055,2689,-842,-2632,-2490,-70,884,650
1846,17000,2128,2690,174,-1778,68,714,-205,-78
1847,17000,1996,2690,-1220,-842,-4086,101,90,273
1848,17000,1972,2691,-2188,2200,-3462,-464,119,14
1849,17000,2068,2690,-2194,3022,-2426,485,-640,-599
1850,17000,1973,2689,324,-1260,-3166,269,764,-1145
1851,16976,2073,2690,-420,-98,1090,145,14,-264
1852,16976,2074,2690,-180,302,-3658,430,15,-596
1853,16964,1978,2689,-1122,-708,-3184,-583,841,282
1854,16988,2068,2690,-236,-1174,-3186,-112,290,335
1855,16988,1978,2689,-172,420,-5946,262,328,-502
1856,17035,1963,2691,66,138,-1222,-387,-710,-835
1857,17035,1904,2690,442,64,-3186,-128,170,-1245
1858,17035,1947,2690,1074,2468,-5098,114,-554,-145
1859,17035,1918,2689,1396,-1568,-6762,7,389,1160
1860,17119,2021,2688,1282,-812,-6066,288,558,697
1861,17131,2083,2690,60,-266,-3460,-296,206,8
1862,17131,1921,2690,996,-526,-8094,-538,704,482
1863,17131,2195,2689,1022,-34,-3534,-25,-135,-1395
1864,17131,1808,2691,-420,-900,-1984,49,39,382
1865,17167,1982,2688,-818,-26,-3070,191,564,-113
1866,17143,1979,2690,386,-1826,-3046,317,-253,-187
1867,17143,2071,2689,-48,-1674,-4468,-300,214,-414
1868,17143,1894,2689,-902,-1564,-3368,-436,4,131
1869,17143,2089,2691,810,-296,-5124,508,-204,126
1870,17143,1879,2689,-212,-110,-4282,43,30,217
1871,17143,1891,2690,1292,-952,-4240,424,-78,102
1872,17131,2133,2690,174,-1394,-6046,-93,62,-396
1873,17131,1916,2690,586,-1042,-2094,-141,-87,8
1874,17131,1902,2691,1048,40,-3308,214,-504,-3146
1875,17167,1944,2691,944,-568,-3934,214,109,-325
1876,17167,1939,2690,-522,-844,1064,304,-713,886
1877,17167,1809,2691,142,328,-3364,178,74,-105
1878,17167,1996,2690,-186,1882,-5788,-377,-122,-337
1879,17215,1925,2689,-1060,1112,-3424,-103,198,-346
1880,17263,1802,2690,1128,-546,-3566,-157,-208,565
1881,17263,2101,2689,-436,-1750,-2698,-41,516,40
1882,17346,1739,2691,1134,-3778,-3618,-141,436,-443
1883,17346,1993,2688,732,-32,-4086,-219,107,-281
1884,17358,2123,2689,-1224,974,-5054,-196,678,123
1885,17358,1779,2690,920,-1062,-5106,59,431,-1457
1886,17573,1930,2690,-52,-260,-3524,285,-154,-193
1887,17932,1907,2690,596,-614,-4696,-368,423,-959
1888,17932,1880,2689,102,-1488,-4592,-581,23,2863
1889,18195,2091,2688,1318,1038,-4250,88,97,-375
1890,18195,1804,2689,1452,228,-3378,236,-88,-803
1891,18494,2051,2691,968,1676,-6014,-135,-18,-797
1892,18733,1867,2690,1108,1574,-3164,-119,296,-989
1893,18733,1897,2689,366,-754,-3674,446,-697,-7
1894,19056,1831,2690,412,-268,-3250,-228,72,-437
1895,19056,2016,2690,2148,-804,-5894,-383,-583,-873
1896,19331,1915,2689,-308,58,-4744,268,176,-1631
1897,19331,1965,2690,-582,114,-7274,-458,757,1570
1898,19606,1886,2690,-204,-814,-3406,52,636,-1030
1899,19833,2018,2690,1834,-518,-7142,527,-91,-1150
1900,19833,1858,2689,882,-1268,-7014,256,-46,-1162
1901,20013,1977,2690,1736,436,-4420,-141,1002,-1584
1902,20013,1933,2691,1942,280,-4664,362,236,-2185
1903,20132,1868,2691,164,244,-4504,211,-646,-2156
1904,20132,1946,2690,936,1852,-4978,-45,452,-1828
1905,20276,2023,2689,1086,262,-5360,375,-88,-1587
1906,20288,1873,2688,442,1470,-4602,59,255,-1316
1907,20288,1863,2691,564,456,-4368,-183,68,-2073
1908,20276,2078,2689,644,2920,-6116,-245,372,-2521
1909,20276,1867,2690,1300,-840,-4766,36,265,-2492
1910,20168,1873,2690,964,-646,-2734,572,455,-3247
1911,20168,1912,2690,794,-160,-3806,-64,357,-2041
1912,20013,1953,2689,464,-1480,-5682,230,910,-1949
1913,19690,2001,2689,1014,412,-4720,369,630,-2262
1914,19690,1878,2689,1708,-790,-3708,123,-354,-3166
1915,19367,1948,2690,1478,1182,-6784,324,141,-1964
1916,19367,1920,2691,660,-3190,-1902,52,-272,-1277
1917,19259,1993,2690,652,-880,-3820,388,402,-2592
1918,19259,1955,2689,420,654,-3348,-112,290,-1946
1919,19295,1970,2689,124,-2252,-3280,249,300,-2438
1920,19367,1932,2690,-390,-380,-5456,-135,287,-1743
1921,19367,1970,2690,1422,-1438,-2602,214,119,-3417
1922,19487,1953,2689,1724,74,-4650,-271,-338,-2754
1923,19487,1921,2689,1494,-806,-4390,-294,38,-1870
1924,19666,2050,2689,2322,-558,-3040,223,-1130,-2315
1925,20025,1919,2690,374,-658,-1756,156,-157,-1271
1926,20025,2041,2690,704,-1798,-1302,211,-62,-2197
1927,20288,1858,2689,542,594,-2928,162,125,-3046
1928,20288,1954,2690,628,-434,-3148,185,367,-1380
1929,20634,2102,2690,1052,1586,-4822,65,520,-1988
1930,20634,1787,2689,2964,384,-5006,169,-300,-2023
1931,20850,2104,2689,112,-1230,-4848,-116,97,-4018
1932,21113,1443,2689,2582,-380,-4860,53,-27,-3078
1933,21113,2121,2690,706,-506,-4642,-219,-265,-2114
1934,21268,2047,2690,972,1268,-2800,58,328,-3049
1935,21268,1992,2691,1614,560,-5510,259,-510,-3918
1936,21268,1668,2690,1554,-1640,-3444,-90,-97,-3458
1937,21280,1936,2691,1794,-1594,-4728,-187,271,-3149
1938,21352,1895,2690,1488,-1916,-3986,-523,55,-3046
1939,21232,2025,2689,1634,632,-5134,-57,386,-4298
1940,21232,1961,2690,1006,-2336,-3180,526,90,-3556
1941,21077,1930,2691,1576,972,-2920,834,147,-3396
1942,21077,1911,2691,378,-1388,-3644,198,-319,-3750
1943,20730,2049,2691,952,-890,-4264,-425,363,-3414
1944,20730,2012,2690,732,-1180,-2180,-44,-335,-3473
1945,20300,1944,2689,1682,-958,-3662,343,198,-2654
1946,20025,1981,2690,696,-1318,-2648,633,-504,-3178
1947,20025,1922,2691,1926,-248,-5386,104,-145,-2895
1948,19666,1934,2690,1292,1454,-3150,149,-485,-4204
1949,19666,1911,2691,-1082,2520,-3170,65,-462,-3261
1950,19176,2135,2690,2582,5640,-7614,-93,-237,-3373
1951,18590,1829,2688,-1220,1050,-4724,-12,-882,-2194
1952,18590,1895,2689,2530,1150,-6010,156,440,-1519
1953,17454,1982,2690,-966,-1722,-566,472,-808,-1495
1954,17454,1968,2689,1598,4098,-6268,156,-161,-1837
1955,17047,2040,2689,108,2532,-6676,-384,-647,-1231
1956,17047,1977,2690,-1220,1854,-3350,-9,744,-773
1957,17035,2011,2687,-984,1758,-2194,-51,74,-977
1958,17035,1956,2687,-688,2084,-5110,6,759,-529
1959,17035,1970,2690,628,1628,-3554,327,-11,-764
1960,17035,1988,2690,-1242,2456,-4658,-45,-81,-1012
1961,17035,2083,2689,-262,-18,-5182,155,42,-900
1962,17035,1954,2692,-466,-794,92,7,-189,-1958
1963,17035,2035,2688,-284,-2580,-4292,-15,-262,-935
1964,17035,2039,2689,408,-1750,-3560,-319,-24,361
1965,17035,1977,2690,-248,868,-4142,-387,-164,-623
1966,17035,1998,2689,1146,1458,-6068,-609,1370,718
1967,17035,1894,2689,662,-544,-4590,-25,-176,-1746
1968,17035,2020,2689,1392,766,-7388,-70,72,-493
1969,17047,1919,2690,-228,-1202,-3100,-145,240,668
1970,17047,1960,2687,214,-746,-3052,81,386,-116
1971,17047,1998,2690,-358,-728,-3034,356,1221,1131
1972,17035,2131,2691,470,-2086,-3818,818,179,-1837
1973,17035,1831,2690,762,-442,-3446,220,439,-167
1974,17047,1920,2689,1788,430,-3214,59,230,-119
1975,17047,1980,2688,922,434,-4676,-668,-75,-1522
1976,17047,2142,2689,-610,-1924,-2454,537,87,-1566
1977,17047,1864,2689,134,-274,-4290,-874,-402,3267
1978,17047,2227,2690,-1156,-206,-4262,-9,-167,544
1979,17035,1801,2689,-436,-4,-1370,62,1030,-4331
1980,17035,2123,2690,-878,638,-3016,395,-27,-1958
1981,17035,1861,2690,572,-1738,-1468,-422,808,4753
1982,17035,2226,2690,466,-2014,-4558,407,170,-455
1983,17035,1870,2689,334,408,-3050,368,363,-2639
1984,17035,2083,2690,-34,-340,-5058,-93,87,-1849
1985,17035,1876,2690,96,-524,-3352,-106,614,-1051
1986,17035,1848,2690,-530,-1756,-2358,430,-183,-506
1987,17035,2121,2691,598,-148,-4158,-406,227,132
1988,17047,1677,2690,974,126,-6670,-16,-456,-576
1989,17047,2005,2688,-48,-306,-2820,520,-687,-3467
1990,17047,1907,2690,896,1364,-5090,-341,208,-57
1991,17035,2036,2689,-362,118,-3096,-70,700,-1330
1992,17035,1770,2689,490,-1962,-1416,353,-205,-190
1993,17047,1972,2691,918,980,-6250,-64,395,438
1994,17047,1894,2689,528,-326,-3704,-509,5,-726
1995,17035,1918,2689,-114,-332,-3460,-1326,-872,4496
1996,17035,1996,2690,-42,1074,-5402,-245,122,379
1997,17035,1992,2691,404,-82,-5164,59,436,-408
1998,17047,1884,2689,934,-514,-5114,127,20,143
1999,17047,2118,2690,662,1622,-6668,-138,530,-349
2000,17047,1900,2690,-278,2550,-3150,-61,49,-779
2001,17047,1988,2689,512,1338,-4382,178,128,-1254
2002,17047,1909,2689,144,1010,-4044,114,167,-467
2003,17047,1988,2689,614,-594,-3488,336,1014,-776
2004,17035,1896,2690,752,586,-4274,39,-119,1473
2005,17035,1877,2690,1972,968,-6158,68,-278,-956
2006,17035,1956,2689,1102,882,-5808,-390,-815,-623
2007,17035,2065,2690,202,-266,-4246,133,252,-543
2008,17035,2114,2690,1062,668,-6050,294,-539,-803
2009,17035,1757,2690,558,-1374,-3314,-8,285,-552
2010,17047,1987,2690,1900,-1112,-6144,-432,-37,-1148
2011,17047,1988,2688,632,-626,-3178,-51,-161,-744
2012,17035,1943,2690,496,-3134,-5334,692,-310,-249
2013,17035,1947,2690,136,-1588,-5372,68,-208,111
2014,17023,1996,2690,-564,-518,-1694,255,1,352
2015,17023,2030,2689,700,1286,-6790,10,-263,-473
2016,16988,1971,2689,1690,-794,-4970,-280,-100,-903
2017,16988,2031,2690,470,-1700,-3210,172,119,-602
2018,16988,1960,2690,-418,2234,-6734,39,411,-794
2019,17000,1978,2689,-428,546,-4264,-254,637,-953
2020,17000,2024,2689,-1396,1486,-2180,1,471,-723
2021,17011,2059,2690,-1226,564,-3594,-197,509,-573
2022,17011,1996,2690,-186,2124,-4236,294,-21,-971
2023,17035,1961,2690,-50,-1002,-2200,588,-1031,-1086
2024,17047,1946,2689,300,-1018,-3292,-51,-424,-859
2025,17047,1918,2689,782,-74,-3800,-26,-199,-918
2026,17047,1962,2689,-1024,364,-5790,-103,-304,2495
2027,17047,1938,2689,-410,1640,-5770,-151,167,485
2028,17155,2041,2689,-38,794,-4990,420,170,-308
2029,17155,1852,2691,1258,-554,-6182,379,-671,-1109
2030,17573,1989,2690,1290,-1402,-5118,85,11,-879
2031,18171,1790,2690,100,-458,-4314,69,-332,-517
2032,18171,1948,2690,96,-944,-4792,-181,29,-441
2033,18721,2061,2690,-984,-12,-636,-110,-587,-1077
2034,18721,1738,2690,2656,762,-7422,-13,506,-1163
2035,19140,1909,2689,1986,-208,-5118,1,999,736
2036,19582,1777,2690,-336,-38,-2464,595,-367,-361
2037,19582,1899,2691,554,-1854,-3018,527,-1294,-850
2038,20192,1779,2691,1432,1492,-4884,-170,589,-935
2039,20192,1700,2691,2824,86,-4138,-99,802,-1622
2040,21041,1926,2688,1148,4096,-5420,550,-145,-7310
2041,21041,2053,2690,460,-1480,-2654,140,-37,-2777
2042,21639,1795,2690,1180,-220,-3778,485,132,-2035
2043,22033,1913,2688,2210,-474,-3994,469,322,-2707
2044,22033,1874,2690,-304,-188,-3720,62,-974,-2898
2045,22225,2008,2690,1224,-2086,-3322,304,471,-3261
2046,22225,1991,2689,742,404,-3084,-90,408,-5521
2047,22261,1755,2688,214,-1188,544,417,-488,-4098
2048,22261,1843,2691,2594,16,-3566,-177,-471,255
2049,22261,1784,2692,1364,-1380,-3416,-229,519,-3002
2050,22440,1918,2690,2396,-1940,-3472,-183,215,-4086
2051,22440,1861,2690,-942,-1744,-1368,36,-599,-3744
2052,22715,1928,2689,1132,262,-2398,85,398,-3670
2053,22715,1829,2690,1686,-68,-3794,663,-167,-3827
2054,22978,1786,2690,342,-1228,-1406,788,141,-3762
2055,22978,1995,2691,2246,-558,-5558,43,5,-3721
2056,23253,1745,2689,868,-468,-2610,-12,-535,-4316
2057,23480,2019,2691,1958,294,-4952,-25,-681,-5990
2058,23480,1610,2690,1630,-940,-4348,-277,-11,-4307
2059,23500,1918,2689,650,-1152,-1146,272,-176,-4375
2060,23500,1806,2689,1468,1166,-2846,404,100,-4510
2061,23500,1920,2690,1646,-918,-3140,-38,-821,-3833
2062,23500,1871,2689,2376,-674,-5244,-106,-75,-4451
2063,23500,1906,2689,1524,354,-5036,-138,332,-4018
2064,23500,1874,2690,2934,-1794,-4344,55,420,-4190
2065,23500,1938,2688,3414,954,-6206,-167,-392,-4313
2066,23500,1917,2689,1108,948,-3338,-129,-447,-4664
2067,23500,1904,2691,196,858,-2246,207,-411,-4174
2068,23500,1894,2689,1378,-1754,-2816,152,-519,-3762
2069,23500,1823,2689,1942,538,-5788,59,287,-4113
2070,23500,1895,2689,2588,838,-3578,-316,1272,-2453
2071,23500,1784,2690,2736,2040,-7406,-99,865,-4003
2072,23500,1969,2688,2558,1864,-6280,-51,-53,-5566
2073,23500,1937,2690,406,-44,-2930,356,-916,-4619
2074,23500,1890,2692,-70,-1428,-1296,411,-961,-4970
2075,23500,1827,2691,1270,278,-5364,-54,-583,-4664
2076,23500,1859,2689,1040,-2150,-4848,78,119,-4339
2077,23500,1903,2689,1086,-1898,-4066,-210,623,-4266
2078,23500,1932,2690,1860,-1184,-2828,-110,284,-4414
2079,23500,1888,2690,1334,408,-2684,-48,164,-4257
2080,23500,1921,2690,1192,1046,-3092,-16,-260,-4334
2081,23500,2048,2690,1332,678,-6822,191,33,-3535
2082,23500,1610,2689,2148,-384,-3738,81,-218,-4970
2083,23500,1879,2689,1922,-498,-5062,-303,255,-5380
2084,23500,1987,2689,378,-1106,-2756,-103,531,-4579
2085,23500,1879,2688,2410,-1098,-2192,666,-332,-4787
2086,23500,1802,2688,1236,658,-4164,356,335,-4932
2087,23500,1914,2689,2024,-252,-5404,-9,-650,-4304
2088,23500,1680,2689,586,-1084,-1494,-197,-18,-4835
2089,23500,1906,2691,1858,-120,-5538,249,-174,-5186
2090,23500,2030,2689,1062,-42,-5030,311,116,-4779
2091,23500,1779,2689,544,-504,-2972,382,233,-4540
2092,23500,1849,2690,2608,-1304,-3066,546,306,-4590
2093,23500,2020,2690,850,722,-5292,-151,-351,-4266
2094,23500,1746,2690,214,982,-3850,-378,207,-4346
2095,23500,1962,2692,-820,288,-2346,-93,-816,-4753
2096,23500,1888,2688,62,1168,-5258,-171,528,-4399
2097,23500,1961,2689,576,324,-4332,-3,554,-3768
2098,23500,1856,2690,618,56,-9564,-15,138,-1967
2099,23500,1809,2689,2772,-2714,-2228,194,-256,-4446
2100,23500,1905,2691,1552,2130,-3856,0,-98,-4596
2101,23500,1846,2690,1204,448,-2724,-3,-828,-4549
2102,23500,1887,2689,1548,-396,-5804,-103,1274,-4131
2103,23500,1887,2689,1338,466,-2498,311,560,-5978
2104,23500,1861,2689,1956,-1540,-3758,194,983,-4275
2105,23500,1861,2691,1422,-1412,-2932,94,42,-5357
2106,23500,1812,2690,1126,2310,-5020,-212,-78,-4923
2107,23500,2037,2691,-340,4110,-2786,-332,-192,-4950
2108,23500,1818,2691,2082,-152,-4956,-348,-532,-5109
2109,23500,1879,2690,1396,2104,-8728,107,563,-4876
2110,23500,1958,2689,2216,-1828,-1882,91,747,-4782
2111,23500,1920,2689,462,-1138,-3406,146,-97,-4360
2112,23500,1899,2691,2316,534,-3894,-19,386,-4952
2113,23500,1916,2690,1424,-920,-6328,-6,128,-4587
2114,23500,1909,2689,2282,1822,-5912,-119,294,-4687
2115,22870,2029,2689,1952,-926,-4022,-32,-199,-4224
2116,18183,1838,2691,1188,1574,-3744,220,-110,-5074
2117,18183,1909,2688,-326,-256,-3236,265,538,-5150
2118,17047,1876,2688,12,1620,-4310,-29,-1683,-5784
2119,17047,1915,2691,-3028,3070,-5264,-261,-1190,-4605
2120,16988,1889,2689,-2000,-320,-500,-406,471,-2038
2121,16988,1824,2686,-954,394,-4922,107,211,-1693
2122,16988,1893,2687,-1040,-6,-5524,-39,-815,-1720
2123,17035,1900,2688,-832,-1262,-5344,359,278,-735
2124,17035,1895,2689,-60,-882,-6894,-39,-101,-674
2125,17047,1948,2687,-788,646,-2728,-245,-225,-114
2126,17047,1949,2689,1304,-1632,-3592,924,-59,-1207
2127,17047,1844,2691,392,1934,-4630,268,324,-1036
2128,17035,1963,2689,676,554,-1976,52,-72,-700
2129,17035,1931,2689,216,2148,-5326,239,-241,-959
2130,17035,2029,2689,1812,-82,-3582,-251,-367,-1436
2131,17035,1911,2690,700,-634,-3118,207,-101,-632
2132,17035,1989,2689,44,-1186,-3280,275,278,-1159
2133,17035,1946,2691,-424,672,-4810,258,-158,-989
2134,17000,1959,2690,1230,578,-4176,7,118,-788
2135,16976,1897,2691,-262,1124,94,-45,-362,-432
2136,16976,1954,2690,574,826,-5184,52,-218,-544
2137,16976,1911,2689,658,752,-5256,-232,36,-985
2138,16976,1931,2689,2322,74,-8658,-106,363,-1183
2139,16533,2078,2689,1024,2814,-5384,-83,-316,-1516
2140,16533,1781,2689,546,-226,-6118,-174,23,-258
2141,15624,1720,2688,1526,1806,-4314,74,-94,-1107
2142,14417,2281,2689,-152,1556,-8122,223,93,-1000
2143,14417,1937,2688,906,294,310,1392,445,-4570
2144,13149,1942,2690,-876,1474,-7434,-87,185,-1864
2145,13149,1762,2689,726,3686,-2444,127,-929,-3205
2146,12324,2014,2688,-2444,2460,-2090,223,-1606,-520
2147,12324,1822,2690,-4540,-200,668,201,106,1349
2148,11786,1860,2688,-1712,-104,-3294,223,-621,1614
2149,11643,1956,2689,-4022,552,-6366,-25,-500,2672
2150,11643,1956,2688,-2994,-1794,-2224,236,49,2183
2151,11643,1997,2689,-2566,-596,-3362,-28,-551,2929
2152,11643,1958,2690,-2336,-476,-5166,36,858,2834
2153,11667,1955,2689,-2162,-1448,-3764,114,421,3291
2154,11667,1912,2690,-2382,1314,-3080,-503,408,4243
2155,11750,2059,2689,-1910,-1142,-6682,-371,728,4926
2156,12073,1826,2690,-678,542,-5786,229,-167,4596
2157,12073,1724,2690,-1508,1034,-3142,207,30,3642
2158,12480,1945,2690,-1050,-874,-1808,-135,71,4060
2159,12480,1830,2688,-2350,1492,-4778,-6,389,4051
2160,12850,1932,2691,-1528,378,-3544,-212,-331,4614
2161,13066,1815,2691,-1976,-304,-5676,-129,-828,4048
2162,13066,1897,2690,-1362,-1444,-2602,120,-154,3736
2163,13257,1891,2689,-172,-1478,-3082,-158,-234,3871
2164,13257,1897,2688,-2198,1554,-5820,171,601,2288
2165,13544,1851,2691,-1296,-1412,-3644,-122,468,2640
2166,13544,1860,2691,-1228,-664,-3446,207,-183,2722
2167,14070,1901,2689,-1534,870,-4178,-125,398,3141
2168,14811,1946,2689,-180,2136,-3412,-426,185,3211
2169,14811,2035,2689,-4,-1398,-1762,52,325,3630
2170,15768,1649,2689,718,-850,-4792,100,-476,2810
2171,15768,1959,2691,546,1726,-6894,-274,735,2292
2172,17023,1885,2690,2552,1840,-3454,207,52,1476
2173,17023,1895,2691,-364,1234,-2798,4,-608,839
2174,17047,1967,2691,-1886,-1110,-4420,191,598,1210
2175,17047,1911,2690,2218,-1422,-3788,-287,392,2153
2176,17035,1914,2690,-160,236,-3844,-135,-784,367
2177,17035,1907,2690,936,-204,-4958,-128,519,311
2178,17035,1957,2690,432,874,-6128,-255,160,66
2179,17035,1940,2689,124,386,-5442,-125,59,-319
2180,17035,1881,2690,966,-1614,-2372,268,115,43
2181,17047,1910,2690,696,884,-2856,39,-523,-255
2182,17047,1911,2689,350,-2134,-2696,84,-282,446
2183,17047,1968,2689,-1436,1898,-1428,97,-402,-134
2184,17023,1877,2689,-460,-1308,-5672,285,-138,668
2185,17023,1760,2689,298,-248,-3848,72,503,123
2186,17000,1982,2689,-1076,-1662,-3714,-312,-567,1623
2187,17023,1891,2690,-152,2,-3758,-387,395,264
2188,17023,1913,2689,-472,104,-4846,75,-43,-287
2189,17047,1953,2689,-522,-1058,-3830,214,14,120
2190,17047,1832,2690,1258,230,-6754,-235,268,1478
2191,17035,1939,2691,820,338,-5220,-283,233,149
2192,17035,1889,2690,344,792,-2300,-361,-179,-181
2193,17000,1931,2690,-1200,-1036,-1184,175,-443,-234
2194,16964,1930,2690,-1778,-676,-1456,-135,-11,-39
2195,16964,1721,2690,-402,-132,-4148,1,78,683
2196,16808,1803,2690,544,564,-4622,259,106,155
2197,16808,2085,2690,110,-748,-3810,230,236,-384
2198,16270,1795,2691,728,-1830,-3872,204,716,208
2199,16270,1972,2691,572,2118,-6942,-112,-485,-626
2200,15708,1710,2689,-44,2126,-6500,-216,-583,-311
2201,15062,1905,2689,442,3440,-6532,-413,-504,1184
2202,15062,2011,2691,-590,-982,-2094,120,-644,-16
2203,14465,1818,2691,-1790,-1098,-5828,459,-164,924
2204,14465,1970,2690,-2256,-1104,-6456,281,-479,308
2205,13974,1917,2689,-2322,874,-7100,-103,801,980
2206,13974,1879,2691,-346,-2384,-3536,-84,-387,547
2207,13711,1942,2689,-996,156,-5628,-367,325,1776
2208,13293,1891,2688,-874,662,-2344,-109,-106,1151
2209,13293,1907,2691,-480,-506,-1786,411,123,809
2210,13018,1842,2689,-1114,-1384,-3164,133,-145,1528
2211,13018,1855,2689,-862,-978,-3456,391,-56,1290
2212,12815,2051,2689,-1320,-118,-5342,-147,88,2699
2213,12815,1642,2690,-1914,-2412,-3826,56,-157,1888
2214,12779,1983,2689,-1868,-1822,-1438,-128,90,2990
2215,12779,1952,2689,-76,-346,-5006,-258,242,2548
2216,12779,1853,2690,-236,-12,-3346,13,220,2465
2217,12791,1941,2688,-778,-1380,-3668,-219,293,2778
2218,12791,1895,2691,-2088,3520,-3188,-381,-66,2913
2219,12743,2019,2689,-1338,170,-3510,-364,-675,3017
2220,12683,1911,2689,-1606,-676,-2646,104,-945,2625
2221,12683,1820,2690,-1546,390,-5830,-413,-456,2422
2222,12683,1971,2690,-1108,-536,-4878,20,386,2702
2223,12683,1867,2691,-680,864,-5476,-261,-98,3541
2224,12695,1964,2689,-1472,-608,-3776,-284,569,3223
2225,12695,1911,2688,-912,-468,-1980,236,595,1016
2226,12683,1835,2691,-1502,2382,-4462,65,-440,2654
2227,12611,2069,2689,-1720,-892,-3280,-83,421,4591
2228,12611,1628,2690,-682,-336,-5800,23,-300,4146
2229,12492,2054,2689,-1878,-1848,-4746,-70,195,3391
2230,12492,1728,2690,-754,-2758,-5074,20,398,3521
2231,12241,1879,2689,-716,-1332,-4044,-200,884,2454
2232,12241,1904,2690,-132,2532,-4676,1,-329,3164
2233,12097,1882,2689,-1900,-220,-3852,-93,172,2896
2234,11870,1823,2689,-1966,382,-2084,-3,186,3975
2235,11870,1882,2690,-1856,58,-4072,555,-50,3500
2236,11667,1830,2690,-2416,332,-4178,475,817,3880
2237,11667,1980,2689,-1610,-1828,-3782,278,-30,3704
2238,11439,1900,2689,-1370,-1090,-6936,576,-656,1670
2239,11439,1994,2690,-1028,-436,-6148,91,20,4544
2240,11081,2049,2689,-1526,2434,-3384,318,-84,4411
2241,10758,1697,2690,-1008,990,-3414,646,-500,3936
2242,10758,1878,2690,-2202,3916,-6810,359,74,5071
2243,10698,2010,2689,-686,186,-5610,324,872,4337
2244,10698,1941,2688,-1812,1580,-7164,-629,-294,5781
2245,10614,2079,2688,-106,-1604,-2892,-332,150,4720
2246,10614,1954,2689,-1546,-1196,-5200,643,-965,6067
2247,10614,1767,2691,-1254,-1704,-4290,336,-320,4614
2248,10626,1948,2690,-2274,388,-3592,604,-166,4841
2249,10626,1716,2689,-1034,-1928,-8272,198,1053,5784
2250,10591,2104,2688,-638,-1662,-5328,-132,252,4301
2251,10591,1910,2688,-960,-2026,-3194,65,-167,4379
2252,10500,1790,2690,-410,-2106,-4596,-354,135,4163
2253,10500,1887,2690,-1642,-562,-4146,-164,-735,4252
2254,10500,1994,2691,-2934,618,-3228,-110,287,4979
2255,10500,1883,2689,-1086,-1074,-5846,-128,-227,3830
2256,10500,1828,2689,-2610,6,-2590,281,-25,3553
2257,10500,2067,2690,-1370,-746,-8902,-158,548,4659
2258,10500,1614,2690,-740,-518,-7628,-609,573,4496
2259,10500,1938,2689,-2988,720,-2290,-717,-396,3456
2260,10500,1771,2689,-586,-616,-2536,78,119,4134
2261,10500,1951,2691,-1458,-622,-522,201,69,5006
2262,10500,1897,2693,-802,-1560,-1620,633,-190,4157
2263,10500,1886,2691,-3288,-408,-4778,-119,-446,4797
2264,10500,1865,2689,-2904,-818,-3332,-313,87,4060
2265,10500,1932,2690,-1360,-1168,-6142,126,-564,4546
2266,10500,1846,2689,-1476,-630,-2602,-287,-256,4461
2267,10500,1945,2689,-1768,628,-1522,278,186,4420
2268,10500,1829,2690,-1104,858,-4884,117,-983,4340
2269,10500,1947,2691,-2006,1578,-7300,-545,224,5048
2270,10500,1879,2690,-1146,-2072,-3332,-603,-875,2059
2271,10500,1810,2689,-1406,262,-5904,-578,-202,4894
2272,10500,1913,2689,1066,840,-5558,-380,-602,4756
2273,10500,1969,2692,-1952,1400,-4836,-90,-443,5056
2274,10500,1903,2690,-520,-536,-5204,-325,313,5239
2275,10500,1895,2689,-2336,-1124,-4920,207,-1009,4659
2276,10500,1884,2689,-3838,-660,-5320,456,751,5802
2277,10500,1795,2690,-3010,1156,-3812,-167,33,5027
2278,10591,1864,2691,-2214,436,-3126,-248,916,4912
2279,10591,1837,2689,-404,-3964,-1014,-190,388,4941
2280,10746,1808,2690,-1450,1610,-2022,-280,-138,5248
2281,11332,2013,2691,-2418,3000,-6142,-574,5,5419
2282,11332,1736,2690,-1318,-2612,-4436,-90,-1078,4252
2283,11894,1808,2691,-3034,362,-6120,-1042,-605,6061
2284,11894,1780,2689,-1418,-2654,-2074,-303,-228,3960
2285,13149,1912,2689,-1700,434,-3658,843,926,4915
2286,14465,1876,2690,1152,82,-1916,-216,671,5375
2287,14465,1952,2690,134,548,-4032,-93,52,3350
2288,15732,1888,2691,-386,-1196,-1966,-45,398,3256
2289,15732,1965,2691,82,124,-4712,75,-431,2896
2290,16736,1882,2691,-718,-902,-2084,675,738,1028
2291,16736,1993,2689,388,430,1386,485,-510,2206
2292,17047,1928,2689,-1910,-722,-3210,-158,442,367
2293,17143,2001,2691,1974,-596,-4268,-222,707,960
2294,17143,1941,2689,-188,-1872,-4232,140,135,191
2295,17167,1936,2689,8,174,-4806,-135,382,-444
2296,17167,2054,2690,672,-1340,-5792,175,-897,762
2297,17167,1761,2690,1312,-1328,-8124,340,-281,364
2298,17167,2053,2690,-232,-336,-2132,410,626,140
2299,17155,1740,2688,726,-1232,-1086,517,116,158
2300,17143,1873,2688,1008,218,-4924,165,-587,-559
2301,17143,1740,2689,-1362,-786,-976,110,-62,58
2302,17047,2125,2690,-1708,724,-4270,-187,-145,2091
2303,17047,1671,2688,-1470,1648,-4180,-141,198,332
2304,16976,1950,2689,356,164,-5626,617,458,246
2305,16808,2063,2689,168,-764,-4924,155,207,249
2306,16808,1802,2690,-208,-2038,-2248,-384,449,-170
2307,16330,1910,2691,-762,-640,-3648,346,217,61
2308,16330,1981,2687,-1212,632,-3608,-180,255,-28
2309,15708,1913,2690,-1056,2026,-5122,-300,20,329
2310,15708,1990,2691,-2004,850,-3072,-345,-993,1773
2311,15039,2079,2691,178,926,-4420,-277,220,220
2312,14524,1669,2690,-2000,1318,-2908,272,-1142,429
2313,14524,2178,2690,-1108,1856,-5114,-348,-450,591
2314,14166,1837,2689,-1422,-1322,-572,-125,-65,980
2315,14166,1864,2690,-2260,2142,-6696,-145,-446,1779
2316,14058,1989,2689,-2248,-1518,-2540,107,62,812
2317,14058,1896,2690,-916,1578,-4278,-183,392,1249
2318,13974,1883,2690,-808,-996,-3180,-316,138,1366
2319,13950,1935,2689,-1418,-358,-4094,284,-774,2563
2320,13950,1795,2690,-2018,-1960,-1852,-139,379,1658
2321,13795,1898,2690,-382,-658,-2814,-83,-5,1903
2322,13795,1901,2689,-1388,958,-4420,-77,360,1602
2323,13652,1983,2690,-662,128,-3374,-93,-221,1784
2324,13652,1834,2690,-1846,-1522,-2820,-32,21,2436
2325,13436,1886,2690,-158,654,-5194,-90,-170,2018
2326,13257,1992,2691,-2328,3210,-4808,-416,274,2383
2327,13257,1832,2691,-1090,752,-4018,-122,49,1923
2328,12886,2033,2689,-1886,42,-2652,-57,-154,1649
2329,12886,1791,2689,-648,1536,-4938,-86,446,1661
2330,12599,1869,2690,-1514,2046,-2890,33,-812,1529
2331,12599,1822,2691,-1002,592,-4950,-510,-120,3347
2332,12217,1982,2690,-1878,1258,-2084,194,-65,1764
2333,11882,1889,2689,-1478,-316,-5306,840,-180,2545
2334,11882,1914,2691,-2070,-1226,-3982,169,157,3114
2335,11726,1878,2690,-1050,-966,-5740,256,-214,3150
2336,11726,1869,2689,-764,-1156,-2252,-403,-47,3111
2337,11643,1867,2690,-994,1048,-4936,-219,-81,4134
2338,11619,1883,2690,-2662,394,-5564,640,-151,3480
2339,11619,1875,2690,-2138,-412,-2936,-3,-272,3819
2340,11571,1888,2690,-2642,632,-5006,-12,151,3854
2341,11571,1837,2689,-1646,716,-6480,-19,-116,4004
2342,11511,2013,2690,222,-1238,-5772,-374,-167,2864
2343,11511,1872,2690,-598,-542,-1220,143,84,3409
2344,11380,1794,2689,-614,-3294,-2542,-80,478,2581
2345,11320,1934,2690,-1704,190,-3452,226,-422,3683
2346,11320,1911,2690,-1754,1800,-5850,369,27,3598
2347,11260,1920,2688,-1190,-1482,-2756,-235,-206,3971
2348,11260,1840,2690,-1082,-358,-3130,4,-119,4659
2349,11260,1877,2691,-1230,-1446,-3774,272,-484,3648
2350,11260,1863,2689,-2082,478,-2950,198,-259,3774
2351,11308,1860,2689,586,1548,-6396,172,220,4314
2352,11320,1852,2689,-1264,1462,-4262,350,110,4402
2353,11320,1966,2688,-1486,-1198,-2216,81,157,3916
2354,11320,1889,2689,-1824,1062,-3930,-280,-580,4060
2355,11320,1949,2689,-2114,-1800,-2742,68,-417,4046
2356,11320,1742,2690,-2808,28,-3454,10,-145,3573
2357,11320,1792,2689,-584,-1146,-5032,369,504,3624
2358,11320,1918,2689,-2420,1480,-4192,355,-25,5053
2359,11463,1875,2689,-2370,-906,-4158,265,284,4449
2360,11463,1886,2689,-700,-2674,-2970,394,-450,4735
2361,11619,1903,2689,-1198,-2294,-4084,127,8,4479
2362,11619,2015,2688,-1438,-2486,-3776,-119,-1266,3350
2363,11726,1928,2689,-3222,-1742,-3172,291,43,4647
2364,11726,1949,2690,-1494,2050,-4170,-248,-65,4644
2365,11966,1900,2688,-1848,800,-2166,401,-704,4797
2366,12611,1971,2689,-1170,882,-2348,446,-488,3704
2367,12611,1941,2691,-2268,-2060,-2396,449,-481,2855
2368,13496,1845,2689,-4476,-360,-4618,200,131,4914
2369,13496,2067,2689,-270,678,-2212,-274,783,4676
2370,14465,1811,2688,-1344,-934,-5332,88,-75,4302
2371,15636,2054,2693,-372,998,-6728,-100,1509,4248
2372,15636,1780,2692,-2416,-2022,-2566,491,719,4104
2373,16533,1904,2689,106,30,-3858,-35,1094,2103
2374,16533,1801,2689,2472,-980,-2722,-342,-507,2675
2375,16964,1987,2690,-30,2032,-4670,-277,-399,1896
2376,16964,1885,2690,894,2558,-4610,411,-30,1252
2377,17047,1939,2691,1046,762,-4772,201,-186,913
2378,17047,1880,2691,-350,-1206,-4966,320,-393,1463
2379,17047,1908,2690,320,86,-6912,-96,195,804
2380,17131,1899,2689,538,316,-2928,-6,-485,-169
2381,17131,2015,2690,-510,-158,-4980,117,-186,-63
2382,17310,1867,2691,122,440,-2350,188,-84,84
2383,17310,1841,2689,70,-1280,-3662,-222,255,373
2384,17550,2102,2690,-380,-1522,-2360,81,576,-608
2385,18040,1696,2689,148,1042,-4758,149,99,-308
2386,18040,1897,2689,-678,-218,-3486,734,583,-2595
2387,18410,1797,2690,1520,208,-5076,381,-320,-827
2388,18410,1914,2691,-50,-1724,-6698,-154,573,-532
2389,18996,1855,2690,-1182,186,-2834,101,529,-529
2390,18996,1901,2689,-138,1008,1810,200,-190,-3482
2391,19690,1947,2689,2178,-3052,-5392,455,198,-650
2392,20300,1975,2691,1770,2574,-7162,563,586,-3738
2393,20300,1836,2690,964,-904,-3300,433,395,-1917
2394,20933,1876,2689,2798,516,-4046,114,-21,-2232
2395,20933,1880,2690,-1024,708,-5438,-97,-336,-2194
2396,21292,1900,2690,3752,-986,-6262,-61,640,-2088
2397,21627,2011,2689,1318,812,-3672,-206,-256,-2409
2398,21627,1754,2690,1468,502,-3592,-141,208,-2076
2399,21794,1867,2689,2402,1920,-5994,242,210,-3084
2400,21794,1876,2690,2222,46,-4202,10,-183,-2895
2401,21902,1860,2689,506,1764,-6410,-118,-109,-3225
2402,21902,1974,2690,914,314,-3896,-48,214,-3235
2403,21854,1886,2690,2782,-2710,-3872,-2,460,-249
2404,21782,1629,2690,722,2582,-2362,-13,1414,-2787
2405,21782,2114,2689,1172,2680,-3526,56,-434,-2733
2406,21519,1719,2689,1628,596,-2392,236,87,-3883
2407,21519,1893,2689,590,-338,-2570,253,-427,-3953
2408,21065,2030,2689,1164,-2154,-3092,85,-103,-3859
