index,servo,motor,gimbal,acc_x,acc_y,acc_z,gyro_x,gyro_y,gyro_z
0,0,0,0,-32,4,-3926,-12,-78,90
1,17035,1,2690,-54,-50,-3974,123,103,170
2,17035,0,2690,-2,-30,-4010,140,-18,28
3,17047,0,2690,-42,56,-4012,-50,262,93
4,17047,0,2690,-32,62,-4038,14,17,2
5,17047,0,2689,-26,-26,-4010,-34,-33,67
6,17047,0,2690,42,50,-3994,-12,132,-60
7,17047,1,2690,-56,72,-3966,1,62,188
8,17047,0,2691,-26,-66,-3916,85,97,-98
9,17035,0,2689,-56,144,-3888,37,-185,52
10,17035,0,2689,-32,62,-3994,20,68,37
11,17035,0,2689,-8,-58,-3926,56,106,20
12,17047,-1,2689,-64,124,-4002,1,-84,55
13,17047,0,2690,-18,-74,-3922,114,-110,-116
14,17035,0,2690,-2,-64,-3960,43,-80,-48
15,17035,0,2690,4,46,-3988,-80,284,17
16,17047,0,2689,-28,64,-4010,-67,135,-84
17,17047,0,2689,-18,-80,-3920,21,168,-107
18,17047,0,2690,-26,72,-3974,-32,240,-110
19,17035,0,2691,-44,14,-3960,49,-113,-243
20,17035,0,2691,-20,-74,-3856,36,278,132
21,17035,0,2689,-52,-30,-3914,21,84,158
22,17035,0,2690,-6,18,-4038,-22,138,-128
23,17047,0,2690,-50,112,-3976,143,-128,-196
24,17047,0,2690,-56,2,-3902,-67,-53,202
25,17035,0,2689,-22,52,-3934,201,5,155
26,17047,0,2689,-42,68,-4034,27,-288,117
27,17047,0,2690,-38,-24,-3948,-154,262,123
28,17035,0,2689,-40,14,-3886,17,-141,-84
29,17035,0,2691,-40,206,-4042,49,186,-193
30,17035,0,2690,8,-112,-3842,39,-132,-302
31,17119,0,2690,-6,30,-4018,30,-227,-19
32,17119,-1,2690,-44,50,-3948,-35,33,58
33,17107,0,2690,4,44,-3982,42,-82,225
34,17107,0,2691,-64,74,-3886,-25,-59,-19
35,17119,-1,2690,48,-174,-3928,43,189,-145
36,17119,0,2691,24,-2,-3936,20,-151,-134
37,17107,-1,2690,-140,-22,-3986,-154,-97,126
38,17119,1,2690,-56,132,-4164,-35,65,244
39,17119,0,2691,-4,-142,-3738,-21,-39,297
40,17107,0,2690,-70,82,-3948,4,145,-157
41,17107,0,2689,10,82,-3942,-83,100,524
42,17107,0,2690,-44,24,-4052,79,-78,-311
43,17107,0,2690,-6,-84,-3940,68,-11,-84
44,17107,0,2689,-24,-68,-3842,14,-132,49
45,17047,0,2690,8,18,-3986,-28,144,84
46,17047,0,2689,-14,-36,-4122,7,18,23
47,17047,1,2690,-58,-66,-4006,-122,-2,76
48,17047,-1,2691,-146,90,-3830,-57,84,-143
49,17047,0,2690,-58,128,-3928,211,-100,-358
50,17047,0,2690,-32,-140,-3886,68,116,55
51,17035,0,2690,-18,154,-3900,68,128,-166
52,17035,0,2690,8,14,-3912,4,462,-319
53,17035,1,2690,-32,82,-4016,-38,-110,-148
54,17035,-1,2689,-26,-120,-3864,17,541,-25
55,17035,0,2691,-48,64,-4040,-15,167,-95
56,17035,0,2689,-32,-78,-3912,-67,93,-19
57,17035,0,2690,-26,84,-3980,7,109,120
58,17035,-1,2689,-92,66,-3946,72,144,332
59,17035,0,2690,4,-178,-3948,72,-65,105
60,17035,0,2689,-58,142,-4042,27,-27,99
61,17035,0,2689,42,-144,-4042,-80,186,-140
62,17035,1,2690,-54,112,-3904,-22,102,-58
63,17035,0,2689,2,-128,-3966,65,-320,46
64,17047,1,2690,-60,124,-4000,59,62,14
65,17047,0,2689,76,46,-3946,56,-97,-81
66,17035,23,2690,-90,-94,-3906,-80,-201,258
67,17035,188,2689,-70,-100,-3880,-106,71,-169
68,17035,235,2689,-204,1634,-3922,-134,241,-151
69,17035,307,2689,-158,940,-3388,39,-593,-632
70,17047,169,2688,-300,2070,-3274,-90,20,-207
71,17047,356,2690,1090,2804,-3610,68,33,-51
72,17047,235,2690,576,574,-2578,52,8,332
73,17047,241,2690,580,2908,-4188,68,93,-81
74,17047,564,2689,372,1864,-5868,-338,-713,164
75,17035,647,2690,482,1010,-2256,-389,-7,-207
76,17035,627,2690,1432,1988,-5128,-105,-389,-81
77,17047,743,2690,-154,-884,130,-64,-504,-178
78,17047,814,2688,1150,-188,-2604,317,107,-31
79,17047,967,2688,-520,6824,-5518,-203,-456,-266
80,17035,843,2690,-80,1228,-1894,-212,259,356
81,17035,879,2689,-1240,3768,-2672,653,98,-246
82,17035,1096,2690,-594,922,-2060,705,-284,84
83,17035,1403,2689,208,4428,-6790,-280,123,403
84,17047,873,2691,-1694,2556,-6454,65,421,-364
85,17035,1143,2688,46,-956,-7046,-148,-30,-160
86,17035,1196,2688,908,2638,-7974,-306,-431,320
87,17047,1370,2688,-734,1144,-2998,382,192,-1283
88,17047,1436,2690,-230,3508,-992,185,252,-988
89,17035,1372,2688,406,2812,-9672,-45,211,31
90,17047,1424,2688,612,116,-4308,-32,-528,-66
91,17047,1427,2688,-378,1490,-884,-613,27,-54
92,17047,1446,2690,-674,-1042,-3546,-19,250,297
93,17047,1419,2689,-280,1486,-2778,462,103,-131
94,17035,1504,2690,510,158,-6600,-48,357,-222
95,17035,1542,2690,188,382,-5956,317,272,-104
96,17047,1348,2689,-436,752,-4076,-3,68,-39
97,17035,1366,2688,-240,-492,-2936,113,220,22
98,17035,1526,2690,1440,938,-3610,340,-18,96
99,17035,1436,2690,-98,1098,-6218,236,-24,-932
100,17035,1370,2690,296,-822,-3134,94,421,185
101,17047,1503,2689,-220,592,-4384,120,4,-877
102,17047,1571,2689,1002,-1808,-6172,-176,-55,-346
103,17035,1510,2691,-428,3858,-2952,-206,249,-349
104,17035,1592,2689,-440,2350,-1768,-44,-55,-204
105,17035,1571,2689,-384,1684,-2912,443,402,-891
106,17047,1730,2690,1744,662,-4122,449,-78,-125
107,17047,1429,2689,1056,1018,-2078,-416,189,-835
108,17035,1656,2689,504,-1086,672,-312,583,-1548
109,17035,1727,2690,896,1402,-6574,-387,-72,-39
110,17035,1726,2687,-860,2824,-2008,101,-208,-464
111,17047,1811,2688,-2110,6320,-2950,256,56,-172
112,17047,1915,2689,40,2388,-1726,72,-465,317
113,17035,1972,2688,-2528,3888,1684,-1003,-1548,482
114,17035,2107,2688,2958,1870,-5790,-422,970,-31
115,17047,2179,2687,-1372,142,-6616,-584,795,-523
116,17035,2173,2689,652,3434,-6784,653,20,-918
117,17035,2212,2689,956,-336,-1162,582,-297,-767
118,17047,2298,2689,166,1502,-2288,4,-335,185
119,17047,2082,2689,340,-450,-3152,372,-227,-246
120,17035,2363,2688,446,3230,-3016,-271,440,-865
121,17035,2364,2688,-1104,-472,-3324,-25,-40,388
122,17035,2357,2690,-826,1510,-3888,107,43,-632
123,17047,2299,2690,-422,-1118,-5648,114,-1,-396
124,17047,2351,2688,1496,-752,-3548,146,373,-564
125,17119,2333,2689,-1246,-918,-2762,295,590,-1949
126,17119,2244,2689,1830,-480,-3582,230,179,-169
127,17107,2345,2690,-1292,148,-5180,46,301,-2223
128,17107,2323,2691,112,-1278,-4936,-25,246,-1201
129,17035,2507,2689,1352,306,-7310,-103,-519,-369
130,17047,2183,2689,408,114,-4716,-138,68,226
131,17047,2264,2688,-288,1412,-734,-196,-697,-178
132,17035,2434,2689,644,100,-2418,-215,316,-137
133,17035,2083,2689,1136,-1440,-2662,-260,-830,-423
134,17035,2430,2690,-1864,856,-2998,133,379,-770
135,17035,2039,2690,1388,-672,-5428,279,265,-187
136,17023,2324,2691,-94,-198,-822,305,-398,-1669
137,16988,2409,2690,-42,-688,-3044,207,433,-485
138,16988,2494,2688,-410,1554,-3722,-57,14,547
139,16964,1923,2690,1254,-594,-5452,1,116,114
140,16964,2333,2691,268,914,-1432,-132,-510,-423
141,16976,2442,2690,-836,-150,-3780,159,440,-2548
142,16976,2187,2691,-910,264,-1450,-205,-87,-670
143,16976,2411,2690,1250,-1276,-1600,-880,15,1331
144,16868,2257,2690,-1510,-24,494,272,519,43
145,16868,2506,2690,1590,-1362,-5272,-186,352,-1693
146,16784,1963,2689,-82,-1494,-4886,275,367,-1133
147,16784,2349,2691,-252,-768,-1494,456,-850,-1357
148,16736,2193,2690,-1310,-1448,-4232,46,440,-929
149,16736,2299,2690,964,354,-1774,201,-589,-461
150,16736,2259,2690,-168,-1368,-5042,143,72,297
151,16736,2176,2690,394,-1538,-4508,166,349,182
152,16736,2204,2688,-734,-664,-4632,-526,-433,1254
153,16772,2340,2689,480,-450,-4896,269,-579,-154
154,16772,2507,2688,104,624,-3148,-322,948,-2194
155,16976,2141,2689,944,-1268,-2686,-86,-91,-950
156,16964,2251,2689,-202,932,-3920,-21,-71,-39
157,16964,2358,2690,1032,-664,-6898,46,-215,199
158,16976,2057,2688,-2442,2572,-6990,-163,415,-473
159,16976,2273,2689,1534,652,-4742,-264,481,1004
160,16976,2167,2689,-2808,3536,-3746,-358,-542,-727
161,16976,2399,2689,438,-1652,-3792,-280,557,-773
162,16964,2335,2689,1052,3624,-7064,53,-64,-552
163,16964,2572,2689,-238,3088,-3080,-961,-1046,-151
164,16964,2203,2687,1478,-918,-6472,-54,516,90
165,16976,2421,2689,-108,2742,-2852,-400,157,-476
166,16976,2515,2689,-594,444,-1124,-80,-777,-593
167,16964,2438,2689,1766,-248,-4930,172,144,-791
168,16964,2821,2690,368,1876,-2412,-254,-293,-764
169,16892,2365,2689,1860,-2792,-2000,1353,732,-4192
170,16916,2591,2688,3170,-2046,-1650,414,-351,-1150
171,16916,2732,2690,-486,3096,-2806,291,233,-523
172,16892,2712,2690,1994,3272,-5558,398,647,-767
173,16892,2736,2689,-380,1866,-7152,-409,27,-596
174,16976,2833,2687,1054,386,-4828,-1080,151,-832
175,16964,2984,2689,-216,1710,-3684,-232,-446,465
176,16964,3058,2690,-2634,4730,-5398,-470,-471,-1
177,16964,3059,2689,1320,-546,-4342,17,103,155
178,16964,3104,2689,-1578,2594,-4314,-403,-897,2106
179,16976,3069,2688,348,836,-5274,1011,-316,1075
180,16976,3022,2687,-920,2020,-5334,-329,970,208
181,16976,3152,2686,1104,510,-1480,537,764,565
182,16904,3112,2688,868,2446,-8056,172,-125,-325
183,16904,3109,2689,184,-1658,-9756,198,-843,-2005
184,16796,2989,2689,1908,4730,-3366,-561,142,-623
185,16796,3290,2688,-128,-1242,-9624,-128,-173,-496
186,16617,3232,2687,336,1166,-5968,-590,85,-287
187,16617,3187,2688,1266,436,-756,207,-478,-941
188,16342,3181,2689,-2912,480,-3504,-422,-129,-337
189,16043,3261,2687,92,1866,-4088,-493,383,-1575
190,16043,3245,2690,-1952,2192,-1556,708,62,-1363
191,15720,3602,2691,-1502,2184,-1910,-303,-332,-670
192,15720,3088,2689,668,-1282,-3590,-380,-802,-63
193,15290,3163,2689,1722,58,-4160,223,180,-555
194,15290,3284,2690,640,1642,-6052,-235,46,1767
195,15134,3067,2688,-318,-482,-6214,-9,481,135
196,14931,3086,2690,-1996,1996,-6048,-274,522,2268
197,14931,3443,2687,-3068,-1040,-3004,-261,-586,1856
198,14596,3465,2688,-1936,-434,-2736,-593,818,4756
199,14596,2758,2690,192,764,-4398,-425,-1268,1405
200,14405,3280,2688,-2780,-130,-6416,-307,379,4310
201,14405,2812,2690,-3404,1208,-3758,-716,1256,2554
202,14094,2904,2690,-1814,-914,-5646,27,-878,1635
203,13915,3042,2689,-1732,-810,-5068,114,675,3315
204,13915,2942,2690,-1718,1680,-4776,624,-567,4812
205,13831,3053,2688,-1360,0,-870,853,1608,3418
206,13831,2954,2689,-2652,924,-2772,430,862,1060
207,13771,3168,2692,-334,318,-2108,482,-1043,-605
208,13783,3284,2689,-1446,-2186,-7796,501,185,2165
209,13783,2667,2689,-3800,-808,-882,-700,-1167,4137
210,13783,3087,2689,-2362,-1492,-7102,-48,-921,3936
211,13783,3177,2689,-344,-1154,-3926,39,-170,4458
212,14070,3383,2692,36,-3324,-1220,340,-81,2987
213,14070,2617,2690,-2234,-1780,-7262,-558,833,5973
214,14752,3137,2689,-1676,-384,-4630,460,-71,3586
215,15756,3122,2690,-1956,160,-1954,398,20,1977
216,15756,3070,2690,-3224,-916,-2034,172,-5,2224
217,16736,3069,2688,656,-56,-6218,227,392,1912
218,16736,3183,2691,-1176,-1672,-2786,240,-631,2041
219,16964,3071,2692,662,-226,-7686,278,1119,1646
220,16964,3483,2690,-2330,-556,-3028,17,1138,1546
221,17047,2555,2690,2098,860,-5880,-332,551,1856
222,17035,3174,2690,720,398,-3274,388,-443,-10
223,17035,2998,2692,320,-340,-5472,285,-88,-1619
224,17035,3646,2691,-260,0,-2862,-574,-859,3203
225,17035,2679,2690,1386,-2150,-4622,-161,-427,585
226,17047,3084,2689,-648,556,-2804,657,183,-847
227,17047,3074,2688,62,-1554,-5002,-22,-275,-273
228,17035,3010,2689,-368,-1260,-1950,449,-665,-467
229,17035,3031,2689,-1224,-494,-1112,217,640,-1124
230,17035,2973,2690,-732,-958,-4644,217,-94,-175
231,17047,3039,2689,206,888,-6274,-22,719,459
232,17047,3028,2690,214,-2134,-1644,378,-84,-137
233,17047,3042,2689,-1354,312,-6142,-160,97,1870
234,17035,2840,2689,610,-1106,-6962,107,294,-1254
235,17035,2964,2691,778,-662,-4520,734,59,167
236,17047,2420,2691,-686,3284,-6878,130,-34,137
237,17047,3097,2691,1676,220,-3686,145,-936,211
238,17035,2892,2690,1464,482,-2678,763,802,-316
239,17035,2947,2689,190,3222,-3068,-996,-541,-346
240,17035,3019,2689,-80,2756,-3006,220,-211,-729
241,17035,2903,2689,36,1060,-3956,20,-110,-756
242,17035,2965,2691,-202,666,-6280,-167,-523,-679
243,17035,3027,2689,-292,1040,-2618,-112,208,609
244,17035,3061,2690,-1500,1708,-4586,-148,-12,107
245,17035,2963,2689,-1100,-838,-1642,420,494,196
246,17047,3319,2689,-1278,1096,-4960,446,-2,49
247,17035,2798,2690,-2528,1680,2034,-868,328,851
248,17047,2915,2689,742,-246,-3070,779,348,-2011
249,17047,3167,2687,-214,-716,-432,153,-589,90
250,17047,3340,2689,-428,1332,-3404,-212,97,61
251,17047,2886,2690,2114,-2452,-3602,417,367,-479
252,17047,3000,2688,-206,634,-2384,565,-707,-199
253,17047,3042,2689,-314,-1130,-5636,223,-720,-537
254,17035,3213,2690,-194,678,-4870,1386,-490,-5436
255,17047,2529,2690,646,160,-3426,-816,567,2180
256,17047,2920,2689,174,-268,-2974,-176,161,-714
257,17035,2852,2689,500,-1464,-4084,282,-69,-588
258,17035,2794,2688,154,312,-2800,-196,605,568
259,17047,2833,2690,-920,104,-3936,-145,-180,-885
260,17047,2811,2688,1840,-218,-5336,-77,380,-682
261,17047,2948,2689,-1808,-762,-1730,268,87,-1673
262,17047,2942,2690,1830,-678,-5658,1,580,223
263,17047,3020,2690,-398,280,-4310,156,-157,901
264,17047,3156,2689,258,-2274,-1818,-158,427,795
265,17047,2837,2689,1688,-1760,-3898,-35,-408,712
266,17047,2956,2689,200,-1150,-2004,-516,364,877
267,17047,2954,2689,-850,-1130,-5986,-651,-1091,-302
268,17047,3077,2690,970,1156,-5960,-28,28,-800
269,17047,3038,2690,-1254,866,-3892,-283,126,-1457
270,17047,2987,2690,-546,-1000,-6152,172,132,291
271,17047,3166,2689,162,360,-4268,23,-323,438
272,17047,3172,2690,-898,-586,-1130,36,757,-1036
273,17035,2912,2690,158,-122,-3472,-22,-177,311
274,17035,3053,2690,-136,50,-5280,-493,-153,-1018
275,17035,2918,2690,412,1668,-2596,-533,112,-497
276,17035,2949,2690,-154,-1004,1082,4,-786,524
277,17035,3462,2689,684,-400,-4378,-545,484,-293
278,16988,2693,2689,-884,-2356,826,120,113,647
279,16988,3011,2689,-196,3826,-10248,-342,437,559
280,16976,3013,2689,508,3520,-3788,-377,-306,883
281,16964,3124,2691,340,-810,-1590,288,353,-267
282,16964,3042,2690,1950,936,-4336,446,-122,-2736
283,16976,3078,2689,276,162,-174,-555,-396,-1752
284,16976,3012,2689,2324,1294,-7696,-112,46,-278
285,16964,3036,2690,172,2176,-7060,-335,202,1042
286,16964,3020,2689,60,-2808,-3560,-338,351,948
287,16976,3210,2688,-1258,2270,-6306,-571,490,694
288,16976,3126,2690,2426,3432,-6022,-764,-798,1974
289,16976,3163,2689,-518,130,-972,53,139,-649
290,17000,3235,2689,206,3572,-4682,-141,46,90
291,17000,3267,2688,-844,4224,-2840,-74,-138,8
292,16988,3257,2688,-968,3202,-2456,-148,929,-349
293,17000,3252,2689,472,1320,-2362,17,-205,-502
294,17000,3284,2688,-132,-878,-1178,-335,113,-1003
295,17000,3212,2689,-490,-1306,-4764,194,563,-1366
296,17000,3302,2688,1440,58,-5524,-103,-618,-1242
297,16988,3267,2688,1024,-1300,-4810,708,606,-679
298,16988,3233,2691,312,-1766,-2102,582,220,-260
299,17000,3052,2690,-58,70,-3568,230,-345,308
300,17000,3115,2689,322,1042,-4558,-174,-199,-381
301,17000,3301,2689,1376,-576,-4194,320,132,-3284
302,17000,2921,2689,586,-1836,-1056,604,450,1098
303,17000,3163,2691,-86,-804,2098,895,-878,-2910
304,16964,3101,2689,-176,1222,-4218,49,-812,-735
305,16964,3027,2689,-676,606,-1904,540,-218,694
306,16736,3040,2689,602,-178,-5336,-171,-348,986
307,16151,3269,2689,78,816,-5526,-161,-751,-809
308,16151,3056,2689,-566,-458,-1964,-167,-383,-98
309,15684,3214,2690,-832,-576,-3120,1,-579,662
310,15684,3340,2688,-2698,706,-3842,52,-152,-612
311,15194,2837,2688,312,714,-4996,1308,694,-154
312,15194,3280,2692,-5006,-66,-6684,-994,-1323,3120
313,14716,3318,2689,-2496,240,-2728,-170,1862,2657
314,13962,3285,2689,1150,282,-6588,-438,-1082,585
315,13962,3045,2689,-3136,-726,-2076,-1268,-710,5360
316,13508,2771,2690,-1820,-394,186,-448,-551,2030
317,13508,3385,2689,-3370,-234,-4240,-41,-1066,2301
318,13149,3084,2689,-2406,-1248,-4134,-109,-208,3412
319,13078,3198,2690,342,898,-6560,-274,-1019,3830
320,13078,2769,2689,-4510,392,-1408,828,53,2280
321,13125,3089,2688,-2718,-1350,-1030,-32,433,1982
322,13125,3084,2688,-2892,1448,-4582,-254,-529,4897
323,13412,3092,2688,-2236,326,-4756,269,465,4838
324,13412,3223,2690,-2592,-1504,-2366,-241,-563,4205
325,13891,3100,2690,-3472,-716,-4672,159,-351,4314
326,14560,3275,2688,-2500,-524,-1882,-781,23,5869
327,14560,3174,2689,-3024,-272,-1036,485,278,4653
328,15254,3147,2689,0,1088,-4110,194,1145,2728
329,15254,2920,2689,-468,-162,-5108,453,-205,2451
330,15146,3261,2691,-1020,-1678,-7374,-351,189,3686
331,15146,3061,2689,316,1830,-6662,-99,-157,3088
332,14178,3122,2690,-1534,314,-5776,-180,-678,3412
333,13257,3269,2690,-1254,76,-6054,966,846,-1722
334,13257,3257,2688,-3892,1424,-7356,1195,332,-617
335,12683,3265,2688,-1678,38,-4994,-1413,196,-66
336,12683,3080,2688,-3484,120,-922,-274,-129,4146
337,12444,3133,2689,-4368,2688,-1284,-341,-389,3409
338,12444,3089,2689,-1084,-630,-2664,-1000,-767,2598
339,12360,3064,2691,-2526,-24,-2640,-729,-221,5050
340,12360,3066,2688,-3392,4366,-7520,-738,12,4284
341,12360,3126,2688,-2834,-2766,810,585,-2120,4048
342,12695,3028,2692,-3322,1174,-4424,-403,-370,6076
343,12695,3195,2690,-4588,1934,-904,-193,764,3656
344,13508,3453,2687,-2944,112,-5508,1198,-939,2648
345,14752,2905,2688,-1226,-2324,-5236,-677,818,8139
346,14752,3068,2687,-2036,592,-5080,520,1183,6300
347,16210,3205,2688,3596,2524,-8118,36,-173,3595
348,16210,3156,2690,-2418,528,-1504,440,-46,1446
349,16210,3089,2690,4498,2954,-4548,33,532,3194
350,16198,3217,2689,2386,-1926,-2920,-177,-1548,2103
351,16964,3205,2690,-1858,1806,-5024,366,249,-122
352,16988,3165,2691,-1484,574,-3358,179,586,694
353,16988,3075,2688,1432,-904,-4734,227,-291,2041
354,17000,2853,2689,-2374,-440,-5456,52,452,-582
355,17000,3019,2690,2210,-172,-6262,746,859,79
356,16988,3215,2689,-890,1538,-3960,194,-675,158
357,16988,3156,2689,-752,-282,-978,-177,509,-104
358,17000,3168,2689,1986,-1162,-11012,1059,-872,-4272
359,17000,3104,2688,-2468,678,-5366,-1194,1307,2259
360,17000,3126,2688,-2214,756,-4640,-86,789,1157
361,16988,3419,2687,28,-1310,-6726,536,-279,-2692
362,16988,2791,2689,170,-542,-7096,-296,-935,-484
363,16988,3082,2690,-666,-654,-2342,259,1002,3005
364,16988,3091,2688,362,2542,-7248,378,-942,-1106
365,17011,3119,2688,-946,-782,-1092,136,-958,697
366,16988,2777,2689,1430,-2244,-1956,327,-888,2817
367,16988,3028,2689,-1240,352,-2648,-296,516,880
368,17000,2935,2689,-756,-2522,-1478,-251,300,-464
369,17000,3034,2688,378,2026,-3546,-9,84,-414
370,16988,3008,2689,454,-1570,-1402,-223,-72,7
371,16988,2928,2690,266,-106,-3886,120,808,353
372,17000,2910,2689,232,286,-3564,-548,-281,-756
373,16988,2701,2688,564,200,-4096,508,8,-921
374,16988,2997,2689,478,-1934,-1700,456,-319,2427
375,16988,2883,2690,180,670,-3418,165,290,-367
376,16988,2939,2691,-482,-1730,-1140,72,-417,2091
377,16988,3231,2689,1492,-228,-4862,288,-246,674
378,17000,2746,2690,-926,-682,-6080,130,602,-906
379,17000,3109,2690,2190,-1066,-1872,7,93,-446
380,17000,2744,2690,-74,-600,-3752,456,433,-806
381,17000,3217,2689,866,-114,-4876,-141,-732,-402
382,17000,2768,2690,-468,-478,-1364,847,-132,-714
383,17000,2861,2689,398,-110,-5250,-180,-110,373
384,17047,2945,2690,-696,190,-5292,-406,34,972
385,17000,2929,2689,-588,90,-3624,243,-78,568
386,17000,2902,2690,-480,324,-2334,-590,59,1661
387,16964,3166,2690,668,-666,-1642,-522,218,1408
388,16964,2689,2690,-202,826,-6790,-312,246,397
389,16808,2981,2689,-450,-892,522,298,-666,641
390,16808,3032,2687,4,-434,-4354,72,-685,1057
391,15947,2725,2691,-262,1294,-6814,-280,951,2348
392,15039,2939,2690,-414,-1578,-3644,-80,-503,1526
393,15039,3052,2689,-3094,-480,-2480,152,-837,-128
394,14285,3172,2689,-3010,262,-6012,24,1901,933
395,14285,2671,2687,-2170,1132,-3934,-348,-142,1587
396,14285,2999,2688,-2712,-712,-1850,-22,-1330,2403
397,14285,3269,2688,-1560,-432,-2640,136,1821,3352
398,12683,2934,2690,-42,-1328,-2726,152,-3257,2451
399,12073,2905,2690,-2142,328,-5872,-1268,525,4075
400,12073,2866,2687,764,2782,-8354,-1110,-735,6005
401,11762,3261,2686,-5434,1734,-4964,136,-427,5431
402,11762,2678,2689,-1326,-136,-4012,-135,-97,3966
403,11798,2875,2688,-1486,-512,-1698,-144,701,3718
404,11798,2975,2689,-1394,-304,-2554,-865,348,4741
405,12217,3064,2688,-3786,3600,-3348,-451,-142,4588
406,12803,3132,2690,-3466,-920,-3494,211,999,4653
407,12803,3027,2690,-870,-1586,-3466,227,-456,2607
408,13508,3010,2688,-2944,1128,-4648,107,-2208,4673
409,13508,3145,2689,688,-1384,-5048,530,-643,4862
410,14178,3034,2692,-2480,-2980,-1104,1208,-513,4037
411,15122,3216,2688,286,1284,-8786,-374,1249,4496
412,15122,3159,2686,-2938,1844,-4506,56,1176,5045
413,16055,3106,2691,-2744,-2360,-6414,-160,965,1508
414,16055,3063,2690,966,726,-5342,298,170,2911
415,17000,3016,2690,496,3332,1108,-273,-1243,3745
416,17000,3060,2691,-1470,-122,-2740,701,395,724
417,16976,3066,2689,1452,1078,-3620,-374,-230,1558
418,17000,3165,2689,-2016,1956,-1420,-522,182,1608
419,17000,3012,2691,-548,-2698,-882,66,1313,1252
420,17000,3080,2690,102,-1472,-3674,-290,-650,630
421,17000,3120,2688,-2366,964,-6974,-942,-668,1838
422,17000,2998,2689,-1158,-684,2880,540,-348,-817
423,17000,3107,2688,-1010,-992,-4812,427,328,1228
424,17000,3143,2689,-1240,150,-1952,-241,300,1125
425,16988,2979,2691,-820,-1502,-1208,850,-186,883
426,16988,3121,2691,-456,1274,-7306,-1284,-808,1066
427,16988,2923,2688,-736,-2140,-2654,-390,-459,441
428,16988,2941,2690,-3598,1766,-7844,-761,1002,-449
429,17000,2845,2689,-382,-550,-3462,-176,669,11
430,17000,3049,2689,-728,140,-2578,443,278,-1761
431,17000,2951,2690,-54,1074,-3112,-128,-631,444
432,16988,2883,2690,-1822,826,-6272,-448,491,341
433,16988,3068,2689,1806,-720,-2474,-700,-1212,1797
434,16988,2628,2688,26,2046,-7986,-35,90,25
435,16988,2942,2688,-720,-1626,-2192,107,506,167
436,17023,2969,2691,820,1168,-6336,601,-2063,1596
437,17047,3017,2689,-2590,1612,-6588,-455,2802,-980
438,17047,3077,2689,-270,-2330,-2168,-819,-516,-929
439,17047,3103,2689,-1508,-186,-4436,185,957,-1389
440,17047,2563,2688,786,-106,-6172,-746,-463,-226
441,17035,3125,2689,-830,1236,-2968,136,30,25
442,17035,3021,2691,996,670,-4428,-19,617,1145
443,16988,2861,2690,-416,-290,-4034,485,621,-4437
444,17000,2896,2689,1380,-1366,-7814,382,306,-753
445,17000,2924,2689,-308,-18,-9608,-629,-735,-593
446,16976,3046,2690,530,-104,-1584,-1110,-577,662
447,16976,2465,2687,444,164,-4378,-758,-449,14
448,16976,3039,2689,-1216,464,-232,-338,513,-573
449,16976,2974,2689,-302,-332,-3564,91,-415,-1121
450,16856,2956,2690,-746,-2058,-3174,469,1087,-81
451,16473,3026,2689,372,-1026,-2106,-245,-281,4225
452,16473,2835,2689,-862,1042,-4398,314,294,-313
453,15744,2929,2690,-1924,-98,-3334,85,1322,308
454,15744,3024,2690,-754,496,-5562,-128,-259,-402
455,15051,2926,2689,-1442,54,-2976,-293,-499,111
456,15051,2897,2689,360,-696,-7404,195,533,-305
457,14584,2875,2688,-2978,-808,-1456,188,-637,-4572
458,14608,3037,2689,-2342,1446,-6326,421,266,871
459,14608,2954,2688,-1958,-38,-288,204,-1675,2062
460,15110,2944,2688,460,-2520,-3172,911,-345,812
461,15110,3047,2690,-1114,-2518,-3864,921,859,-346
462,15756,2953,2690,-1010,356,-3926,872,-624,2133
463,16808,2943,2689,-1448,3852,-8966,-196,88,155
464,16808,3188,2689,-916,2072,-1122,149,-1104,417
465,16964,2665,2690,-368,-794,-4932,427,-319,1593
466,16964,2803,2689,3146,2320,-4954,-22,154,2009
467,17000,2953,2691,2676,-828,-2512,1454,973,3674
468,17000,2890,2692,2324,4408,-11290,918,214,-1177
469,17000,2998,2690,132,-1480,-2486,-164,27,-897
470,17000,2913,2689,820,1624,-4434,508,589,-1271
471,17000,3327,2691,1126,312,-5454,371,-882,-143
472,16988,2562,2688,-3400,254,-3934,-538,678,435
473,16988,3296,2690,-1534,3682,-5770,-471,-8,-968
474,17000,2997,2689,872,998,-4796,-277,-11,-2017
475,17000,2814,2689,934,-1252,-4086,-309,249,-1289
476,17000,2985,2689,560,704,-2104,-416,1138,-1716
477,17000,3324,2689,176,-1624,-3826,-6,81,-1377
478,17000,2829,2689,1382,-22,-7918,-390,-383,-1395
479,16988,2792,2692,-172,576,-2492,659,-862,-535
480,16988,2909,2690,-420,-780,-7274,-626,1307,-2769
481,17000,2881,2689,624,-320,-3282,-84,1,-818
482,17000,3098,2689,-2,1044,-1774,-971,-1503,5139
483,16988,2688,2689,142,3168,-6334,-28,217,123
484,16988,2998,2690,1746,28,-3578,117,-167,1620
485,16988,3106,2690,-2452,552,-3576,-697,910,1714
486,16988,2872,2689,-76,-382,-6294,-490,-843,435
487,16988,2957,2687,-30,78,-5930,-389,383,-1946
488,17000,2910,2689,-682,-924,-1688,46,564,783
489,17000,2956,2690,40,-752,-5384,-739,294,409
490,17000,2960,2690,666,-834,-3048,-390,306,2177
491,17000,2921,2688,-306,-1482,-2544,-51,1170,470
492,17000,2901,2689,210,-1078,-6128,-752,230,376
493,16988,2747,2690,-2236,-660,-2582,240,-116,948
494,16988,2839,2690,-1270,2390,-4590,-331,-46,-1277
495,16988,2873,2686,-612,24,-7164,-322,-542,-1463
496,17000,3056,2690,-746,-602,-1534,181,332,-1180
497,17000,2744,2690,-2182,1502,-6562,-80,227,951
498,17000,2948,2690,236,-100,-4440,265,729,-175
499,17000,3066,2690,-546,-432,-2522,-290,-986,-1569
500,16988,3442,2690,-134,-218,-6050,-148,-1009,-355
501,16988,2857,2689,1866,1804,-5758,-890,-262,3742
502,16964,2967,2690,706,-1828,1008,-245,-573,-340
503,16856,3095,2691,-284,-730,-4472,162,65,-36
504,16856,2968,2688,-336,-1404,-7276,-112,-62,229
505,16186,3299,2688,-2054,1204,-2168,-490,541,1107
506,16186,2930,2689,1284,-1738,-3876,-190,-56,193
507,15194,3063,2689,-250,1512,-2500,-115,-293,-535
508,15194,2957,2690,466,-212,-3510,307,516,220
509,14285,2909,2689,-1946,144,-692,4,-608,-1593
510,13281,2928,2689,-5720,-10,-5016,-287,-1063,-1092
511,13281,2964,2689,3138,782,-3578,278,1141,1847
512,12372,2710,2686,-494,-1678,-2770,430,-1856,1599
513,12372,2830,2687,-1904,-502,-2414,78,1024,3120
514,11703,3037,2689,-3906,5350,-2858,-448,-1653,1585
515,11703,3005,2690,-2774,-2522,-7292,262,-52,3562
516,11308,2870,2687,-2724,538,-1994,-12,430,2731
517,11212,3124,2688,-1980,-82,-4632,-374,-310,5525
518,11212,3071,2688,514,1760,-7788,-933,452,1269
519,11272,3072,2688,-2706,-102,-3412,126,-177,2960
520,11272,3016,2688,-3668,1398,-5468,-354,116,3306
521,11499,3032,2689,-2058,-1642,-3318,699,-45,4488
522,11499,3102,2688,-3872,570,-2854,504,-894,5042
523,11643,2968,2688,-2040,-5432,-2250,-141,681,6050
524,11798,2995,2688,-2924,26,-3904,491,-831,6191
525,11798,3082,2686,-3886,-294,-4276,-2643,-405,10936
526,12049,3043,2688,-2050,-1708,-1276,998,462,4228
527,12049,3021,2688,-4466,2514,-1738,-212,-643,8148
528,12157,2933,2690,-3756,-430,-1250,743,-294,6047
529,12229,3043,2692,-2758,456,-5364,2132,255,4175
530,12229,2981,2690,-3232,-2820,-6576,262,424,6415
531,12444,2964,2687,-2122,1326,-1880,-638,-493,6176
532,12444,3032,2686,-3668,-1594,-3600,-358,1164,8210
533,12731,3055,2689,-2000,986,-3986,-255,-164,4758
534,12731,2819,2691,-1708,-216,-4228,-684,-1583,8711
535,13293,2878,2691,-5994,-444,-2728,391,-612,5109
536,14214,2966,2690,-1012,-2424,-3802,459,196,5669
537,14214,2993,2688,-1958,464,-2834,-180,850,6545
538,15349,3130,2690,-4200,-1188,-2336,-138,1557,5731
539,15349,2892,2689,510,-516,-676,-248,1646,5348
540,16976,3024,2692,-1786,-4320,-2618,184,-536,4287
541,16976,3279,2694,-1172,2694,-4344,353,-519,2657
542,17000,2751,2692,-1856,-1926,-4244,469,1345,4547
543,17000,2996,2687,3816,3488,-4690,-823,792,2707
544,17000,3053,2686,820,-2278,198,146,-814,120
545,17000,3278,2694,-1518,142,-5918,494,-787,691
546,17000,2712,2694,984,1524,-7232,-267,-993,317
547,17000,2947,2690,-802,990,-9274,1876,2304,-3753
548,17000,3026,2689,722,-416,1142,282,789,2183
549,16988,2981,2688,-200,-242,-6858,69,1168,-797
550,17000,2598,2690,94,-1180,-3374,708,220,-2571
551,17000,3273,2690,-1430,-58,-1020,269,-472,-723
552,16988,2720,2690,2118,310,-8368,-187,-882,243
553,16988,2829,2688,-470,472,-3496,107,160,123
554,16988,3067,2688,1680,-322,-6976,-400,945,146
555,16988,2942,2689,1416,-56,-2756,-535,-427,-263
556,16988,3127,2690,868,462,-2420,-477,812,79
557,16988,2864,2691,-736,-824,-4922,382,-703,1092
558,16988,3107,2690,1066,2810,-3484,-429,-643,588
559,17000,2954,2687,-844,-1318,-240,-90,-215,2035
560,17000,3050,2689,-1538,518,-1568,14,509,-1366
561,17000,2810,2689,-764,-248,-4160,443,-726,-1495
562,17000,3062,2689,70,-184,-5650,359,-59,-1003
563,17000,3269,2690,-2206,-1968,284,533,-313,-7440
564,16988,2796,2689,10,-616,-4584,-22,1234,-5126
565,16988,2882,2689,672,-1178,-1338,-413,-27,-255
566,17000,3037,2690,720,-988,-3788,145,207,-361
567,17000,2962,2689,-42,2518,-3600,98,-1097,-1021
568,16964,3116,2690,-332,-924,-2954,291,922,-1840
569,17000,2821,2690,208,-212,-4044,520,-929,-561
570,17000,3044,2690,-808,-428,-5256,-493,1129,612
571,16976,2987,2688,496,534,-6688,-332,-186,-84
572,16976,3026,2691,646,-2208,-5306,-54,-211,-1534
573,17167,2895,2689,-894,-900,-3096,-255,544,1348
574,17167,3201,2689,-1314,-652,-1648,343,-307,980
575,17585,2565,2690,1600,-144,-6032,-235,125,1729
576,18853,2858,2689,-656,1134,-2450,-22,-97,403
577,18853,3000,2690,386,454,-1764,-467,-1164,812
578,20060,2885,2691,-3428,202,-7106,37,501,-22
579,20060,2903,2688,3556,-2568,-2274,230,1656,-770
580,21292,2889,2689,1232,398,-3580,598,-551,-2064
581,22045,3063,2692,2226,-736,-3612,208,1040,-2771
582,22045,2755,2694,1150,-1300,-936,947,554,-4802
583,22464,2761,2689,3912,-3196,-3124,-622,487,-1937
584,22464,2959,2690,2570,-630,-6272,-116,-358,-3455
585,22512,2764,2692,1460,710,-6620,1173,1453,-3918
586,22512,2893,2690,2568,-2242,-584,-9,-329,-4761
587,22201,2812,2691,1874,-1136,-3064,-316,-148,-3199
588,21352,2736,2690,3744,-676,-4944,837,195,-8586
589,21352,2671,2688,3282,-2306,-4648,168,-2,-4856
590,20037,3062,2691,5322,-102,-5544,-539,-72,-5772
591,20037,2671,2691,1282,476,-2586,343,-275,-8911
592,18482,3161,2689,7478,-2958,-3072,-154,1097,-3423
593,18482,2819,2690,-4554,2554,-2684,666,-2727,-6237
594,17047,2942,2690,-5080,3166,-10808,-735,-735,-6379
595,17047,2628,2687,1174,744,-3686,84,547,-3161
596,17047,3010,2684,-364,2256,-5332,-41,190,-1410
597,17011,2639,2686,-456,182,-3082,-322,716,-1422
598,17011,3063,2690,-936,1018,-3154,1,-754,-1398
599,17000,2598,2690,-66,-212,-1934,-328,-557,-1554
600,17000,2840,2688,1016,-938,-4836,-67,478,-2433
601,17000,2784,2690,1886,452,-7758,-173,-643,-1887
602,17000,2682,2689,3140,1246,-6084,-41,802,-555
603,17000,3054,2689,764,-1308,-4378,475,475,-1145
604,17023,2844,2688,1320,1066,-2406,-370,34,-2102
605,17023,2867,2690,434,506,-2052,-354,-113,-1280
606,17047,2894,2690,776,828,-2130,-45,-770,-493
607,17047,2939,2689,1102,14,-4296,27,65,-723
608,17047,3032,2691,1822,-1140,-5050,707,-193,-1366
609,16976,2854,2688,-198,-898,-5878,-222,-382,-1345
610,16976,2949,2688,368,3092,-4128,-274,427,759
611,16796,3286,2692,570,-274,-2140,321,-373,-847
612,16796,2739,2689,-1480,168,-1116,317,652,-1044
613,16163,2996,2690,1462,0,-62,395,249,332
614,15062,2996,2688,-4,-566,-6368,-703,-577,-1109
615,15062,2954,2689,792,-2130,-1098,269,1279,-72
616,14082,3102,2689,1812,54,-1802,-45,-675,-929
617,14082,2995,2689,-2530,26,-4066,795,-1297,-1251
618,13066,2975,2690,-4130,446,-2276,954,812,836
619,13066,2985,2688,-2968,1044,-2650,475,-735,1464
620,12276,3052,2688,-2372,56,-2788,-183,-443,2690
621,11762,2947,2686,-3446,-1340,-5994,139,-1171,2887
622,11762,3058,2687,-1162,-672,-2238,-897,684,3816
623,11583,2980,2687,-2672,-1156,-1736,342,201,2966
624,11583,3052,2690,-1420,-2144,-5580,-213,503,2978
625,11320,3008,2689,-2286,-1366,-3810,146,-993,2710
626,11320,3229,2690,-3450,-1642,-5894,621,-233,2501
627,11224,2725,2688,-1644,-1414,-3904,788,-694,2041
628,11212,3032,2690,-5312,572,-4806,-612,246,7512
629,11212,3042,2686,-796,-1254,-6322,-697,1440,5546
630,11308,2752,2687,-3010,-980,3040,-809,167,5693
631,11308,2983,2689,-1440,-756,-4070,-264,-129,5876
632,11404,3399,2690,-1662,-2642,-5508,766,-929,5313
633,11404,2733,2690,-3740,2048,-5018,-61,-485,4986
634,11523,3148,2689,-2638,-1270,-4058,-619,545,6336
635,11523,3013,2687,-3638,744,-3814,169,186,5994
636,11523,2970,2689,-1966,-2770,-4860,-212,-56,6197
637,11511,3001,2690,-3108,570,-854,456,-347,5569
638,11511,2998,2688,-1878,192,-6912,-177,-94,6188
639,11308,3039,2689,-3732,398,-3474,543,-1224,6763
640,11308,2885,2690,-1824,212,-5714,391,795,5404
641,11224,3317,2689,-2282,-1270,1210,110,-485,7037
642,11224,2810,2691,-5320,796,-2130,149,-211,6138
643,11224,3082,2690,-3178,-684,-6600,-413,868,6227
644,11260,2996,2686,-3726,1560,-5202,317,-894,5092
645,11260,3319,2688,-3710,-32,-2200,-506,93,7181
646,11392,2832,2690,346,-1960,-3602,298,-503,4986
647,11559,2964,2689,-4310,356,-2588,-407,-314,6418
648,11559,3024,2690,-1568,-2726,-2770,954,1018,1526
649,11667,3291,2687,-5650,482,-4246,285,-643,7373
650,11667,2674,2689,-4026,-838,-4538,-1103,611,6486
651,11882,2861,2690,-3940,1166,-2914,343,-293,6745
652,11882,3027,2689,-3552,-3032,-3712,-254,-389,5947
653,12312,2906,2690,-1248,-2278,-2018,-222,-58,5504
654,13078,2974,2691,-1858,1446,-2254,127,-1263,4102
655,13078,2960,2689,-5598,1600,-2074,615,-357,5631
656,14214,3339,2691,-840,-1222,-1658,1195,-586,6106
657,14214,2673,2690,-5684,1190,-2874,733,102,6291
658,15840,3023,2690,184,1974,-8098,-141,1195,5472
659,15840,3046,2688,1234,-754,-7680,-513,970,3704
660,17023,3369,2689,2284,3946,-4868,-571,1361,4915
661,17047,2856,2692,2992,-1648,1224,366,-760,3444
662,17047,3068,2692,-478,2230,-6896,152,-253,1455
663,17047,3009,2692,-594,-1242,-1204,-265,760,788
664,17047,3054,2690,-720,-646,-6384,847,-519,1499
665,17047,2973,2688,-102,-182,-8598,-119,398,1160
666,17047,2910,2689,-816,-768,-3126,155,-237,-541
667,17047,2698,2689,1168,-676,-5466,188,710,-959
668,17035,3088,2690,84,234,-2018,440,17,541
669,17035,2855,2689,-1264,-1554,-2064,81,617,-788
670,17047,2616,2689,172,1902,-8186,-306,532,-425
671,17047,2937,2689,-818,-1982,-534,-238,-548,1390
672,17035,3183,2689,-36,1484,-5364,-93,-1352,1726
673,17035,2774,2689,-2082,-60,-2970,-199,-923,220
674,17035,2854,2689,1288,890,-6198,705,602,-876
675,17047,2741,2687,-930,128,-5194,-96,846,-75
676,17047,2954,2687,-936,1892,-2882,271,646,-995
677,17047,2861,2691,-480,-1254,-4232,-200,1601,897
678,17047,2723,2690,1124,486,-4044,-145,637,-965
679,17047,2809,2687,-232,580,-1908,-170,81,2242
680,17047,2888,2690,490,-344,2712,427,-1088,-39
681,17047,2662,2691,1038,-162,-2502,169,14,1025
682,17035,2945,2691,1908,-1982,-6216,520,668,547
683,17035,2825,2690,-900,1186,-4870,-235,-59,730
684,17047,2828,2689,694,-474,-6158,-161,100,-717
685,17047,3065,2689,-1640,1094,-5732,201,253,170
686,17047,2909,2689,-1458,-510,-1992,-271,71,435
687,17047,3053,2691,432,1520,-3394,-106,-164,-1080
688,17047,2832,2688,198,-2108,-540,-1214,966,2315
689,16988,3009,2690,-1842,556,-2450,330,1119,129
690,16988,2996,2691,-1414,-788,-4844,1134,103,-2038
691,17000,3156,2692,-2484,54,-3896,585,986,379
692,17000,3159,2689,-768,-828,1098,937,-516,3842
693,16964,3020,2690,-954,-1484,-4412,-135,205,388
694,16976,2908,2690,866,1600,-3478,230,497,-1148
695,16976,2942,2690,1272,-568,-4650,339,553,-1266
696,16904,2837,2690,-1754,-210,866,-21,564,1028
697,16904,2841,2690,902,418,-4548,-746,328,-1508
698,16772,2980,2690,-1384,4864,-7238,-390,-650,865
699,16772,2938,2688,440,46,-4296,23,-307,1246
700,16509,2973,2689,-110,1952,-1996,198,-955,-797
701,16055,2998,2688,1316,320,-2168,449,465,-1522
702,16055,3064,2689,-80,570,-1108,459,665,-222
703,15493,3034,2688,1066,-2160,-6068,501,1170,-204
704,15493,3063,2688,-1000,2974,-5370,-1091,-504,942
705,14919,3144,2688,-1600,686,-1066,-496,-453,1366
706,14166,3169,2688,-728,-2124,-1466,391,-831,1210
707,14166,2871,2689,-300,1092,-4128,362,-516,1676
708,13891,3180,2688,-2098,-398,-4192,330,91,314
709,13891,3546,2688,-2194,1118,-4764,166,-147,2386
710,13795,3238,2687,-2368,1506,-5402,-103,750,2442
711,13795,3317,2688,-798,-418,-1038,340,-157,2893
712,13747,2951,2688,-910,-1262,-180,4,-304,1107
713,13783,3083,2690,-4096,2332,-1362,518,-817,1558
714,13783,3451,2688,-1820,-236,1164,401,-157,3008
715,13783,3234,2688,-1746,394,-4274,107,-675,2257
716,13783,3639,2689,-4766,362,-910,743,850,1529
717,13652,3251,2689,-2730,-1552,248,711,-183,1278
718,13652,3103,2688,-3086,-1722,-5588,-1265,326,5422
719,13293,2938,2690,-2010,306,-3466,-128,-173,3969
720,13161,3610,2690,-2808,-1420,-2032,-671,68,4022
721,13161,3392,2688,-2210,-2154,-542,-283,-84,3704
722,13125,2697,2690,-2492,-664,-5712,963,1892,6353
723,13125,2825,2688,-1120,-1262,-3830,52,-443,3450
724,13149,3137,2689,-5790,1884,-3668,169,-21,3612
725,13149,3012,2689,-3094,-1364,-2058,172,1589,1322
726,13257,3102,2689,1108,-124,-3154,191,824,3394
727,13640,3071,2688,-3884,-530,-2196,-170,1783,4246
728,13640,3191,2689,-1352,-158,-6212,-584,319,3556
729,14237,2925,2690,-2340,-1960,-3144,-409,-742,3043
730,14237,3167,2690,-1088,-2534,-3490,-103,-398,3547
731,15170,3157,2690,-2024,178,-2620,236,-65,4541
732,16449,3159,2690,-1998,-638,-1830,-125,567,3371
733,16449,3307,2689,-3066,1340,-6636,230,802,2905
734,16976,3106,2692,2476,-1170,-4492,369,1253,3895
735,16976,3091,2691,1600,-1070,-2684,-309,-716,1652
736,16976,3255,2693,506,1278,-4118,-93,405,1378
737,16976,3155,2692,988,-152,-3404,37,-586,2147
738,17000,3148,2690,-264,188,-2702,443,59,376
739,17000,3407,2689,-204,-914,-7400,346,-75,-252
740,17000,3045,2691,194,-124,-3316,-128,-43,2840
741,16988,3047,2690,-658,3900,-9512,-526,233,-263
742,16988,3445,2688,1774,-2264,-3564,663,945,-1083
743,16988,2797,2689,-318,-282,-4722,421,-61,473
744,16988,3177,2688,482,1670,-4188,-639,36,1101
745,17000,3100,2690,698,2558,-2814,-342,684,-1021
746,16988,3145,2689,656,-3004,-2688,723,-101,-1122
747,16988,3139,2688,136,158,-5084,97,-240,308
748,17000,3183,2690,-162,3886,-3436,-429,-81,-2657
749,17000,3135,2689,-410,1206,-2792,-54,157,-420
750,16988,3208,2689,-552,1544,-3964,382,538,-33
751,16988,3164,2689,-1082,-1996,-3266,366,-259,860
752,17000,2869,2689,-82,-2666,-3720,453,40,-63
753,17000,3558,2689,840,-428,-3782,72,-59,-60
754,17000,2892,2688,540,436,-7422,-768,-24,-296
755,17000,3603,2689,-114,2190,-3036,427,-951,742
756,17000,2841,2689,902,-976,-2694,188,196,2248
757,16988,3152,2689,-38,-928,-7170,-3,-383,170
758,16988,3163,2690,-76,-248,-4910,-57,363,-237
759,16988,3234,2690,-2262,980,-3160,-218,117,-865
760,16988,3060,2689,1294,820,-6562,-51,804,-500
761,16988,3224,2689,-382,-214,-3618,-45,490,114
762,17000,3156,2689,1358,-692,-3496,56,-148,-234
763,17000,3089,2689,-152,-2358,-1710,-790,-465,3698
764,17023,3765,2689,1790,-1072,-8002,366,43,158
765,17011,2777,2690,334,-128,-4418,669,770,-2739
766,17011,3233,2689,924,-162,-5998,-322,370,-92
767,17000,3165,2691,-518,264,-2196,-170,-653,485
768,17000,3392,2690,642,2874,-6152,43,69,745
769,16964,3045,2689,-594,1460,-2280,-386,-471,-900
770,16964,3098,2690,694,-820,-3288,798,-624,-4168
771,16689,3117,2690,356,-1406,-2808,-1210,-402,344
772,16234,3202,2690,46,226,-4322,269,-132,-113
773,16234,3327,2690,-648,-1068,-4764,98,68,-63
774,15732,2746,2689,-976,1108,-5556,-429,421,503
775,15732,3378,2690,-122,-2000,-3006,301,1,31
776,15134,3103,2688,4030,-576,-5354,-1139,173,-638
777,15134,3314,2689,-6124,3102,-106,-706,-1498,199
778,14572,3133,2689,-238,2204,-6426,575,833,927
779,13915,3231,2688,-3168,-998,-1580,330,-676,1183
780,13915,3204,2687,-1214,-862,-4226,101,716,1585
781,13317,3265,2689,-4020,190,-4378,-184,-780,1982
782,13317,3452,2689,-3460,1530,-7754,-545,132,1932
783,12898,2998,2689,-3986,-870,102,-212,-8,2366
784,12898,3175,2687,-1404,-376,-5036,66,221,3276
785,12683,3228,2689,-3080,1410,280,-6,-186,1617
786,12683,3237,2690,-1634,1140,-3318,-358,916,3668
787,12683,3651,2690,-2540,4506,-8600,-345,-968,3532
788,12683,3073,2689,-3596,1784,-3950,-264,411,4178
789,12683,3286,2690,-4186,2118,-5754,285,-243,2867
790,12683,3211,2689,-4632,-144,-3446,324,830,-2111
791,12683,3365,2688,-2370,-2424,784,-787,-507,4835
792,12683,3501,2687,-2040,-1152,-3944,-354,103,4016
793,12683,3383,2690,468,-1590,1040,-274,100,4470
794,12683,3338,2690,-1048,222,-4218,898,-1139,5484
795,12791,3109,2689,-1674,-3460,-3784,249,-164,4505
796,12791,3342,2688,-3054,-218,-1880,440,-199,4270
797,12886,3386,2688,-2280,-2412,-3324,433,1138,5027
798,13257,3268,2690,-2100,2,-6152,140,-97,5725
799,13257,3175,2689,-4548,1694,-5508,-83,116,5481
800,13771,3423,2688,-2310,1498,-5264,-170,-157,4446
801,13771,3243,2687,-2168,616,-3842,543,-603,4455
802,14285,3286,2689,-2758,-2634,-3456,1234,-154,2808
803,14285,3031,2688,-830,-1404,-4904,621,382,4688
804,14417,3331,2688,-1866,-2002,-3096,1346,1008,3774
805,14094,3339,2687,-2468,-458,-3284,291,338,3150
806,14094,3204,2690,-1876,-74,-1764,382,-672,2784
807,13891,3092,2688,-2782,776,-3630,-212,-996,4959
808,13891,3270,2692,-4584,-1028,-5698,-74,-657,6751
809,13783,3089,2690,-5600,1466,-6290,-21,-1265,3715
810,13783,3201,2689,-118,-2642,-4354,249,189,3695
811,13783,3143,2688,-1608,-1478,-4812,-664,481,2990
812,13771,3676,2690,-2726,192,-2304,-1103,-214,7621
813,13771,2721,2688,-2832,52,-2252,49,1488,4567
814,13771,3319,2689,-1570,-1256,-5024,43,329,4019
815,13771,3080,2690,-3114,-2712,84,-461,862,4944
816,14022,3242,2690,-1364,-994,-3822,520,395,5157
817,14405,2988,2689,-2146,1128,-7368,-238,-418,5345
818,14405,3413,2689,-3468,936,-4068,-312,274,4373
819,15051,3061,2688,-3258,554,-3036,-448,525,4040
820,15051,3217,2689,-1516,-2106,-3132,-445,360,4561
821,15744,3566,2689,-722,526,-2420,811,745,193
822,15744,2936,2690,1662,-2044,-1896,366,-897,4278
823,16904,3145,2689,248,-16,-4826,362,1233,3028
824,17000,3246,2689,3016,486,-4836,49,811,249
825,17000,3288,2690,-246,1460,-8110,431,-370,-1265
826,17000,3532,2693,-732,-2120,-1824,794,1195,411
827,17000,2745,2690,2124,-396,-1858,472,485,417
828,17035,3344,2689,-1930,-1164,-7644,-190,-453,-655
829,17035,3211,2688,2242,-400,-3692,-77,1316,694
830,17011,3296,2690,1222,-1132,-5208,544,-328,-1321
831,17000,3150,2690,770,48,-4460,385,113,-1168
832,17000,3382,2690,924,-2466,-2482,440,-338,-207
833,17000,2936,2690,1570,-1308,-5896,437,633,1154
834,17000,3242,2688,668,910,-8030,-342,-240,-355
835,16988,3503,2687,-908,2612,-6062,-642,1542,400
836,16988,3038,2691,-814,-430,-614,-548,-932,-45
837,16988,3138,2690,-124,372,-2150,-219,-221,-688
838,17000,3602,2689,-764,748,-5540,59,335,-523
839,17000,2852,2689,-344,1694,-1934,317,-34,-101
840,17000,3374,2691,-962,-790,-1702,272,-1415,11
841,17000,2961,2689,380,-1146,-5388,-361,14,-375
842,16988,3235,2690,-1104,1492,-1468,-164,163,-788
843,16988,3005,2690,-764,-1586,-4408,-371,74,-89
844,16988,3143,2689,102,-1398,-2422,233,-513,-1781
845,16988,3142,2691,6,978,-386,611,128,-8978
846,16988,3024,2690,276,1448,-4650,201,-872,-1274
847,16988,3136,2691,-464,388,-5518,-61,605,-440
848,16988,3339,2690,308,642,-3592,43,-799,-470
849,16988,2896,2690,1522,-1334,-4002,-203,560,1593
850,17000,3058,2688,-382,-1672,-2618,-80,-726,-60
851,17000,3138,2689,362,-1550,-2482,181,1158,-420
852,16988,3104,2689,346,-774,-6422,-161,-488,2481
853,16988,2896,2688,-416,-1858,-5272,-244,1218,311
854,16988,3186,2689,436,-518,-3256,278,642,-2398
855,16988,2967,2690,-250,-604,-3732,-338,-202,149
856,17011,3331,2689,-22,298,-4582,-303,-373,-296
857,17035,2718,2690,-38,-982,-3804,-51,-354,-84
858,17035,3147,2690,268,-630,-4890,592,621,736
859,16976,3044,2690,-2398,-510,-5234,-303,478,111
860,16976,3391,2688,-360,514,-5852,-229,884,-272
861,16976,2922,2688,1530,-98,-2370,388,1268,-6067
862,16976,3058,2689,114,-1602,-3732,-168,458,-1693
863,16976,3198,2690,890,-1242,632,469,-475,137
864,16904,3425,2691,544,-76,-5134,223,128,591
865,16904,3057,2690,-1428,-634,-2848,495,506,916
866,16402,2792,2689,2518,-598,-9210,856,-81,-3178
867,16402,3372,2690,-308,-622,-4636,608,1141,-549
868,15684,3100,2690,638,634,-5936,278,68,-487
869,15684,2749,2690,-2436,1054,-6168,-199,-475,-255
870,14919,3148,2689,-1650,-648,-6480,-564,-246,1187
871,14333,3206,2688,-2248,478,-5784,-600,-596,1004
872,14333,3469,2689,-4242,-1434,-3370,353,824,-69
873,14094,2887,2689,-2470,920,-1528,114,-455,1561
874,14094,3167,2689,-4018,718,-2110,614,522,1806
875,14058,3215,2688,-988,-2674,-4294,-239,195,3512
876,14058,3116,2688,-4356,5566,-5410,-438,554,3244
877,14070,3071,2690,-1184,1054,-3038,-26,-320,1702
878,14058,3083,2688,-840,-3572,-4832,30,1129,3468
879,14058,3042,2688,-2032,1170,-5486,-593,446,2817
880,14070,3174,2689,-2052,1828,-3104,-345,224,1714
881,14070,3109,2689,-1204,-2842,-3108,-1271,-1120,5387
882,14058,3080,2690,-16,-128,-5170,140,-459,1906
883,14058,3187,2691,-2946,1244,-2954,-77,-472,3362
884,14058,3084,2689,-3642,-26,-1606,107,1106,3167
885,14010,3236,2689,-2086,784,-2506,-109,421,1691
886,14010,3356,2689,-2262,1968,-1770,-552,166,2515
887,13950,3275,2689,-2724,-1064,526,608,-129,2062
888,13950,3207,2692,-476,104,-3514,475,-650,2660
889,13903,3218,2689,-2122,-736,-1506,187,-869,2268
890,13879,3270,2687,-1068,2296,-4168,236,-320,2359
891,13879,3369,2688,-4020,1592,-4788,-145,-133,2527
892,13771,3435,2689,-2452,1726,-1950,-48,87,2681
893,13771,3314,2689,-3530,2126,-5388,-115,-795,3651
894,13508,3319,2688,-2524,742,-46,363,-325,3250
895,13508,3369,2688,-3606,-450,-60,378,-878,2663
896,13257,3312,2689,-2500,1318,-3318,43,903,6339
897,13173,3234,2690,-1818,-950,-1834,350,-710,3435
898,13173,3341,2690,-4526,-452,-8838,414,475,3176
899,13245,3384,2689,-1900,764,128,7,-250,4432
900,13245,3237,2687,-6034,1808,-7544,-132,-1133,4478
901,13293,3187,2688,-4836,372,2664,391,1297,5192
902,13293,3290,2689,-2894,-402,-3924,10,-1895,3934
903,13293,3170,2688,-4454,-120,-3336,-371,1646,4611
904,13879,3357,2688,376,1592,-1974,-41,-589,3217
905,13879,3215,2690,-3302,-2472,-1552,-93,-465,6383
906,14178,2812,2690,-2602,-1756,-4414,-125,1424,6003
907,14178,3169,2690,-822,-878,-6656,-396,-1393,3267
908,14572,2921,2687,-1992,290,-7306,792,516,1343
909,14787,3274,2689,-3578,838,634,-1681,55,6262
910,14787,3236,2691,-3132,-490,-3982,214,1084,6011
911,14775,3172,2691,-3680,3390,-4630,-342,103,4532
912,14775,3343,2689,-974,-1002,-7448,-968,-189,6271
913,14799,3192,2691,-5624,122,-5890,556,-234,4496
914,14799,3227,2691,862,-158,-6342,-574,668,3288
915,15027,3234,2688,-372,-2772,-7282,-438,-573,2442
916,15027,3276,2691,-378,2954,-5702,-674,1015,1116
917,15039,3388,2690,-1934,460,-7492,-232,97,4933
918,15230,3294,2688,-1562,102,-3308,-316,-551,3067
919,15230,3232,2690,-1814,214,-6150,579,-180,3624
920,15409,3279,2690,-2728,-710,-6488,943,52,3153
921,15409,3141,2688,-1260,-1962,-4948,49,1357,2716
922,15684,3343,2689,-1618,128,-2650,198,544,3097
923,15768,3256,2689,-580,2776,-3684,-364,529,1576
924,15768,3222,2690,-348,316,-4142,-254,-240,2805
925,16031,3253,2690,-2512,1550,-5042,-225,-55,3942
926,16031,3346,2689,722,-1572,-1014,-139,-339,2863
927,16402,3193,2687,-3934,156,-1516,317,928,-4364
928,16402,3158,2687,-344,-1898,-3890,-116,1040,2336
929,16964,3317,2690,-3334,-430,-4464,353,-519,1726
930,16964,3362,2691,2492,3586,-3396,-587,1513,1243
931,16964,3386,2689,-212,-4582,3594,417,-443,-4059
932,16988,3221,2689,-2472,1930,-2274,-303,1192,559
933,16988,3420,2691,354,130,-3058,327,-653,-632
934,17000,3249,2688,-676,-232,-6036,26,-898,2014
935,17000,3168,2690,740,204,-3536,262,-310,-1118
936,17000,3269,2689,-258,-790,-2684,834,11,-6901
937,17023,3026,2689,-186,-964,-5588,188,370,-1755
938,17023,3436,2691,1320,-400,-4680,71,509,-818
939,17000,3391,2691,1826,-318,-3188,198,-891,-1162
940,17000,3266,2688,-24,-448,-4524,-555,332,-1548
941,16988,3155,2689,-372,-1056,-904,-871,290,3730
942,16988,3138,2691,-1474,1610,-3394,585,-913,43
943,16988,3281,2688,-304,-630,-6962,-274,1526,-1970
944,16988,3344,2688,546,406,-4238,-67,-627,261
945,16988,3268,2690,-66,772,-4448,-416,960,674
946,16988,2885,2690,-294,-580,-5068,7,411,87
947,17000,3179,2690,-1158,-1764,-2134,330,-662,-552
948,17000,2846,2689,148,594,-4070,227,-122,-2070
949,17000,3363,2690,-72,-138,-1670,262,-306,-1065
950,17000,3204,2689,-1002,-282,-3306,-390,697,2861
951,17000,3099,2689,-778,1474,-7246,175,1167,1369
952,17000,3201,2688,1484,1694,-5680,356,-758,-201
953,16976,3161,2690,-256,-718,-4366,-177,433,2392
954,16976,3543,2690,-2664,-1046,-1218,158,210,3093
955,16868,2879,2688,-1134,-780,-5198,-171,-256,399
956,16569,3222,2689,398,1678,-2938,-393,-326,276
957,16569,3189,2689,-1218,406,-1196,-267,459,25
958,15959,3511,2689,250,-998,-2540,178,-97,3385
959,15959,3437,2688,-214,-30,-3386,-96,-309,-608
960,15254,2910,2689,-1014,2512,-4600,-67,109,1794
961,15254,3213,2691,1008,592,-3080,205,-401,-655
962,14775,3264,2690,-1660,-282,-2132,-28,-418,783
963,14106,3254,2689,-494,-2232,-1702,-258,769,-827
964,14106,3472,2689,346,-2622,3772,424,-2428,-1934
965,13556,2733,2689,-4276,-848,-6378,-823,-11,689
966,13556,3369,2689,-1526,2202,-6436,-587,290,2481
967,13066,3294,2687,-1746,1492,-4392,-290,-1186,918
968,13066,3322,2688,-2176,788,-8194,-523,763,3013
969,13066,3235,2690,-1698,1364,-4686,-312,-201,5089
970,12468,3298,2689,-6036,528,-5164,62,529,2321
971,12468,3248,2689,-1924,1234,-3952,-245,-847,4004
972,12480,3274,2689,-5870,276,-1128,-28,469,4031
973,12480,3235,2691,184,214,-398,-345,837,4547
974,12492,3643,2689,-2582,-2426,-326,159,-1034,4219
975,12599,2885,2689,-3526,1126,-5728,2512,-853,-2657
976,12599,3250,2692,-3492,916,-5260,-248,74,4935
977,12695,3274,2688,-4926,990,-5710,-158,-421,6359
978,12695,3281,2688,-1048,2880,-5944,84,855,4175
979,12838,3294,2688,-2578,392,-1744,-577,-567,4037
980,12838,3342,2692,-2552,-1364,-6502,1195,-745,4423
981,13018,3269,2691,-4110,-1982,1096,805,-56,5124
982,13173,3292,2690,-3660,-930,-8306,94,-415,4647
983,13173,3219,2688,-3632,-2674,-4194,-403,1519,5445
984,13532,3237,2689,-2206,-1688,-1788,-261,468,4962
985,13532,3319,2688,-1132,-986,-5056,-661,621,8570
986,13879,3250,2691,-468,-304,-2910,334,-645,5277
987,13879,2974,2692,-1604,-2364,-6010,608,-1980,4234
988,14333,3585,2690,-2538,-204,-4928,-199,-656,4712
989,15051,3045,2691,-1088,-780,-3102,94,382,5492
990,15051,3313,2689,-1738,-1426,-7982,779,147,6353
991,16163,3139,2689,-1266,-682,1212,198,2812,1107
992,16163,3412,2691,614,-2826,-6420,214,748,3468
993,16976,3335,2691,622,400,-5296,-519,1317,3462
994,16988,3311,2691,1102,360,-5706,-661,-62,3453
995,16988,3148,2691,892,-544,-6258,617,-18,2012
996,16988,3274,2692,-454,2316,-4670,-784,-122,1001
997,16988,3331,2691,-124,-564,-1782,556,119,-116
998,17000,3126,2689,-1188,-1130,-5422,-252,1903,40
999,17000,3312,2689,-232,-412,-2970,120,408,-5875
1000,17000,3036,2688,-1284,-1532,1166,372,1846,-2792
1001,17000,3223,2690,374,-2918,-2988,46,494,-1495
1002,17000,3218,2690,-1490,906,-4258,133,563,261
1003,17000,2989,2689,-780,554,-4564,307,74,841
1004,17000,3549,2688,728,-1498,-6254,-280,-1059,58
1005,16988,3206,2689,-228,-364,-2118,-364,1056,-446
1006,16988,3201,2690,-2116,114,-1450,-306,1028,-461
1007,17000,3232,2689,94,1480,-5628,-451,815,288
1008,17000,3186,2688,130,730,-5428,443,757,-1372
1009,17000,3381,2691,-1210,-82,-4692,-471,1173,244
1010,16988,3143,2689,-612,-366,-4500,-455,-358,-337
1011,16988,3352,2689,-1060,-1242,-50,-167,-300,70
1012,16988,3207,2690,1852,714,-6140,-432,-431,-1416
1013,16988,3584,2691,1752,3750,-3658,-238,-456,456
1014,17000,2987,2689,-1082,-256,-6826,798,1154,-1053
1015,16988,3144,2690,44,2064,-6286,0,715,1446
1016,16988,3278,2688,60,242,-4344,-180,281,1048
1017,16988,3255,2687,-1144,3320,-1306,272,662,-316
1018,16988,3220,2691,-1678,-714,-2230,84,-291,1272
1019,17000,3130,2690,626,-1154,734,-80,-71,1679
1020,17000,3315,2688,-1422,-912,-3564,369,214,889
1021,17000,3215,2689,176,-142,-7662,333,87,2857
1022,16988,3582,2690,-810,500,-2356,256,93,-428
1023,16988,2758,2688,-1030,-608,-4752,-335,198,229
1024,17000,3479,2690,1708,-2164,-4254,-413,382,55
1025,17000,2926,2689,192,-1524,-6188,56,253,-750
1026,17000,3556,2689,-122,588,-2402,237,-1373,-308
1027,17000,3220,2690,248,2402,-4634,656,-250,202
1028,17000,2949,2689,512,-806,-2550,333,-256,-821
1029,17047,3335,2690,-294,-814,-240,514,214,-1973
1030,17047,3167,2690,62,1980,-7202,-170,-56,-579
1031,17047,3643,2689,1658,-664,-3808,-267,786,-3087
1032,17047,2811,2689,1064,434,-4122,91,-21,-517
1033,16964,3300,2689,-1172,-2556,2442,123,-126,-2438
1034,16904,3128,2691,1580,-1678,-2876,-45,-510,792
1035,16904,3257,2691,-18,770,-1902,346,17,-1381
1036,16868,3044,2688,-394,-1898,-3082,479,513,-473
1037,16868,3253,2689,1116,-250,-5990,336,-351,-181
1038,16581,3130,2690,-34,-1840,-3814,-235,-227,-685
1039,16581,3191,2689,-426,88,-2344,-383,199,126
1040,16174,3165,2689,-118,1262,-4490,-112,1181,-502
1041,15732,3141,2689,386,-58,-2606,611,33,264
1042,15732,3395,2689,-40,-408,-4056,436,-310,1189
1043,15134,3155,2691,-3344,502,-3934,517,-824,-405
1044,15134,3208,2691,-2404,-112,-6522,-759,-491,603
1045,14764,3296,2689,-660,-1458,1292,220,-551,-199
1046,14764,3173,2690,-1690,974,-13056,62,182,1443
1047,14333,3377,2688,626,-2056,-6658,711,59,-42
1048,14202,3064,2689,-1912,450,-5500,-1197,290,1953
1049,14202,3289,2689,-1670,1130,-3426,-2508,-465,76
1050,14142,3067,2687,-3760,-642,-1054,140,-488,2766
1051,14142,3247,2690,-790,-2166,168,550,-535,559
1052,14130,3092,2691,-714,-1420,-2550,278,-554,2802
1053,14130,3298,2690,-2092,124,-5018,582,43,4063
1054,14178,3124,2689,-3474,830,-6428,305,466,927
1055,14333,3001,2691,-2590,1496,-1944,123,-189,1635
1056,14333,3374,2689,-1374,-180,-1744,-461,-237,4352
1057,14321,3214,2688,-1496,804,-3488,-629,-415,2707
1058,14321,3244,2691,644,-3184,-2060,-41,666,2643
1059,14142,3471,2690,122,1112,-5426,-19,497,1832
1060,13819,3056,2690,-1104,446,-7796,-309,186,686
1061,13819,3269,2690,-628,-486,-8850,81,-167,3155
1062,13532,3233,2690,-1408,3378,-11618,-874,-551,2949
1063,13532,3287,2688,-2026,-1144,-5082,-726,271,3179
1064,13149,3554,2690,-1544,-166,-2584,-80,348,748
1065,13149,3070,2690,-2016,1750,-4506,-868,-681,2881
1066,12827,3383,2690,-166,-1356,-4224,-258,-513,2637
1067,12551,3314,2689,-2438,-1420,-6402,-64,-55,2230
1068,12551,3283,2689,-1516,-1752,-4316,559,-570,3621
1069,12217,3260,2691,-3406,2822,-9466,-296,-11,4476
1070,12217,3068,2689,-298,3234,-5354,-571,-354,1953
1071,11750,3467,2689,-1156,924,-4154,-32,-138,5015
1072,11750,3680,2689,-3718,1196,-866,462,-266,4178
1073,11392,2972,2690,-850,1422,402,-77,96,4269
1074,10985,3389,2691,-6468,-618,-4170,788,-1142,3691
1075,10985,3639,2689,-2270,-414,-2366,663,-281,5454
1076,10722,2801,2688,-6974,1840,-3444,-339,-215,5911
1077,10722,3446,2689,-2102,-2818,-3396,621,389,4980
1078,10591,3325,2688,-1964,-1852,-5504,-194,614,8513
1079,10591,3427,2688,-634,-898,-4940,-419,-81,6795
1080,10500,3545,2689,-4588,960,-2778,643,-94,4090
1081,10500,2683,2691,-4766,2258,-5096,-112,-558,6176
1082,10500,3523,2688,-5090,728,-1682,-965,-1247,6400
1083,10500,3325,2689,-4072,3454,-2988,911,-507,5045
1084,10500,3266,2689,-5698,1448,-442,198,472,2896
1085,10500,3482,2688,-4088,-952,-1306,692,274,6518
1086,10500,2939,2689,-5400,-1850,-2862,295,329,5575
1087,10500,3544,2689,-1578,238,-4406,-748,-847,9981
1088,10500,2970,2689,-2558,1896,-4172,26,236,6653
1089,10500,3292,2689,-124,-3102,-3834,-109,398,7052
1090,10500,3114,2690,-94,-890,-8776,-161,-79,5964
1091,10500,3454,2691,-172,-2282,-5380,-358,455,7977
1092,10500,3285,2690,-1980,-1696,-6652,78,-507,8106
1093,10500,3337,2689,-2386,-496,-6742,-21,647,5516
1094,10500,3370,2690,-1668,-214,148,608,-186,6946
1095,10500,3585,2690,-3292,2272,-4830,81,-15,7768
1096,10500,3102,2689,-6692,4184,-3192,-606,-234,6424
1097,10500,3372,2689,-5988,2690,-2444,265,-332,7146
1098,10500,3316,2689,-4864,-1032,-840,404,256,4995
1099,10500,3326,2689,-2056,292,-618,-116,-405,4520
1100,10500,3388,2689,-4926,1924,-5858,104,744,5384
1101,10500,3268,2690,-3028,-1490,-6052,68,1370,5448
1102,10500,3089,2689,-3796,-3204,-6814,-403,-243,7405
1103,10500,3188,2689,-2148,-1252,-5906,-2437,-1316,5101
1104,10500,3217,2690,-1150,1574,-2522,524,-814,3371
1105,10500,3232,2690,-4734,5194,-4538,539,-31,3302
1106,10500,3112,2691,-3326,-1054,36,737,494,5790
1107,10500,3257,2689,-5304,-1618,-2866,931,1081,6710
1108,10500,3331,2688,-5764,406,-2300,-184,191,6117
1109,10500,3307,2688,-4098,776,-3286,-174,906,1154
1110,10500,2824,2688,-1840,-912,-6232,298,-532,4016
1111,10500,3518,2691,-3028,-1946,-3216,181,-494,5224
1112,10500,2930,2690,922,-3500,-4610,969,779,5519
1113,10500,3227,2690,-4576,4746,-13986,-219,30,6011
1114,10500,3141,2688,-2990,112,2072,624,1945,2159
1115,10500,3190,2690,-5702,1988,-1626,-247,-608,6094
1116,10500,3378,2688,-6518,2664,-5420,-919,281,9519
1117,10500,3227,2691,-1588,-1486,-4710,330,-1024,4670
1118,10500,3133,2692,-4988,-904,-6228,-955,-710,6739
1119,10500,3478,2688,-1660,-454,-2638,1596,-446,2914
1120,10500,2858,2687,-3326,-2332,-8238,97,-1304,7225
1121,10500,3364,2688,68,-478,-10434,30,1281,4267
1122,10500,3238,2688,-2260,-82,-4462,130,929,4894
1123,10500,3437,2688,996,-2078,-4880,-916,922,5905
1124,10500,3334,2688,-1288,18,-6452,776,-142,4473
1125,10500,3203,2692,-3278,634,-4960,446,-1101,5165
1126,10500,3139,2693,-4374,422,-2312,94,-717,5713
1127,10500,3262,2687,-1342,1436,-2742,1005,-309,5575
1128,10500,3374,2686,-4392,78,-5306,207,621,6725
1129,10500,3504,2691,-6408,212,894,624,1513,6651
1130,10500,2932,2690,-4958,2152,-2004,-393,-170,8596
1131,10500,3325,2685,-5048,1160,82,-319,1144,6692
1132,10531,3378,2690,-4518,-376,-1052,-1065,-875,10138
1133,10626,3216,2690,-6234,-374,-4656,-1062,452,6698
1134,10626,3358,2688,666,-72,-3278,-1362,-568,13205
1135,10686,3077,2687,-862,-3168,-1416,278,-923,5669
1136,10686,3340,2688,-2802,-1310,-2550,921,621,3244
1137,10698,3268,2692,-2860,-2304,890,439,-463,5360
1138,10698,3299,2689,-8240,-2526,-10242,-242,525,6591
1139,10722,3615,2688,-3048,-1638,-4424,-800,725,6202
1140,10925,3012,2688,-2242,1904,-1534,-174,-904,6397
1141,10925,3388,2688,-2548,-1968,-3554,3,-669,6724
1142,11093,3118,2693,638,-896,-1462,598,46,6610
1143,11093,3253,2693,-4734,-1632,-8500,1169,1456,3544
1144,11164,3371,2689,-4700,-2108,-4982,178,424,5516
1145,11164,3382,2688,-4220,-3358,-3976,2483,1710,4738
1146,11153,3168,2688,-1312,-3322,-6228,333,1885,3002
1147,11176,3185,2687,-1016,3202,-3842,391,-767,5180
1148,11176,3125,2689,-4468,-2326,1294,278,-993,6262
1149,11164,3644,2691,-2822,-2648,-1194,1040,592,686
1150,11164,3082,2687,-830,-844,-2426,1156,566,3901
1151,11224,3027,2689,-3420,-1554,-4776,440,17,4812
1152,11236,3588,2690,-2950,-1690,-4650,2422,1980,-2306
1153,11236,2977,2686,-4394,3554,-2866,-6,-666,6303
1154,11224,3160,2686,-8116,-604,-1022,127,506,4149
1155,11224,3123,2687,-2976,2464,-2618,-390,-211,6333
1156,11212,3276,2688,-678,-1882,-1130,321,1165,6424
1157,11212,3548,2688,-2334,1168,-6626,-606,449,9200
1158,11212,3542,2688,-3108,416,-3128,-99,-567,7064
1159,11320,3417,2689,-6554,4112,-4508,-105,-449,4933
1160,11320,3496,2689,-8186,2478,-6552,-690,291,6439
1161,11559,3273,2690,-3418,-786,-2242,459,567,6834
1162,11559,3269,2687,-5294,-302,-2616,-138,360,6778
1163,11762,3242,2688,-976,830,1712,-354,1510,6212
1164,11762,3472,2688,-1528,-1416,-282,272,646,5475
1165,12480,3762,2691,-4166,-2112,-2524,-103,-187,6491
1166,13317,3076,2690,-4224,1330,-9528,636,-523,5068
1167,13317,3097,2689,-1812,1694,-5052,259,-983,5563
1168,14285,3473,2688,-10954,2164,-6832,-152,611,7098
1169,14285,3045,2687,332,-2102,4676,36,1199,5952
1170,15134,3628,2690,334,-280,-2822,-177,-176,5793
1171,15134,3248,2691,-1250,-268,-2546,-290,3145,5457
1172,15947,3547,2691,526,-490,-3712,1111,1049,4331
1173,16689,3279,2691,-638,1822,-9574,-22,-1974,2345
1174,16689,3188,2692,130,-1216,-7968,-413,1157,3541
1175,16976,3146,2691,154,5170,-6290,-119,-1399,3963
1176,16976,3216,2689,-4926,924,-2444,-684,643,2307
1177,16964,3232,2690,-578,-788,4934,2242,2736,-5253
1178,16988,3193,2690,-424,-1154,-634,-326,-228,1216
1179,16988,3216,2689,-1364,-1726,-1196,-22,122,1502
1180,16988,3296,2689,-1518,118,-3520,-261,-304,370
1181,16988,3251,2690,2174,-1968,-8410,1263,-415,-523
1182,17000,3192,2687,-1770,-1526,-6864,-623,858,3459
1183,17000,3257,2686,1310,-2162,-8686,-416,633,818
1184,16988,3314,2690,-162,-480,-2244,-877,1199,-555
1185,16988,3537,2690,1214,2208,-6284,-448,-113,2445
1186,16988,2840,2689,-364,-590,-2094,-555,176,771
1187,16964,3163,2689,924,-58,-3338,56,881,-753
1188,16964,3132,2688,290,-268,-5472,-245,-402,-372
1189,16976,3253,2688,-1178,254,-4628,-458,478,238
1190,16976,2966,2690,1100,148,-5684,330,868,43
1191,16964,3374,2689,-760,-1996,-2800,317,-5,-1404
1192,16988,3448,2690,242,-412,-5998,856,1405,594
1193,16988,3202,2690,1260,1246,-3912,-112,332,465
1194,17000,3195,2689,-796,5346,-3710,-874,710,-455
1195,17000,3059,2690,-502,-1138,-794,13,-606,193
1196,17000,3490,2691,-636,464,-4994,-797,348,1947
1197,17000,2899,2690,620,762,-4644,291,141,-682
1198,16988,3265,2689,272,-484,-7454,43,459,580
1199,16988,3451,2689,-1078,-862,-1166,-141,344,606
1200,16988,3109,2689,868,-2160,-854,368,198,2719
1201,17000,2986,2689,168,-730,-3574,4,265,1820
1202,17000,3410,2690,-170,152,-3646,-296,240,-78
1203,16988,3222,2690,-240,2172,-6436,-261,-97,-708
1204,16988,3261,2690,-776,-828,-4064,-590,-379,52
1205,16988,3202,2689,-226,394,-7900,-373,-30,3303
1206,16988,3180,2689,-334,2458,-4652,104,357,314
1207,16988,3304,2688,-302,-792,-1134,246,20,-75
1208,17000,3162,2689,-1164,-1760,-1714,766,919,-216
1209,17000,3196,2690,766,150,-2470,349,74,-10
1210,16988,3310,2690,-218,-258,-4896,-380,1098,-367
1211,17131,3134,2687,136,-64,-2866,-571,-193,-668
1212,17131,3204,2689,-962,1892,-5682,-735,-351,273
1213,17382,3034,2689,194,1284,-4006,36,-323,-163
1214,17382,3255,2690,-2534,1126,-208,433,186,-1127
1215,18183,3155,2690,-910,-772,-6142,1237,-408,-2751
1216,18183,3250,2690,-1974,1528,-7452,-187,153,561
1217,19020,3036,2688,1224,-1744,-3372,372,1793,-2194
1218,19522,3435,2689,5046,-1408,-4794,-768,-418,706
1219,19522,2976,2690,-358,-1178,-7264,298,-843,-809
1220,19690,3263,2691,2526,-1514,-5646,162,468,-4700
1221,19690,3111,2691,3410,476,-4622,-1026,-637,1392
1222,19809,2986,2690,610,1152,-4666,-51,973,5835
1223,19809,3254,2688,3124,-558,-3934,272,-475,-2763
1224,19821,3097,2691,1764,-578,-8074,214,20,-3924
1225,19845,3076,2689,2974,3488,-4176,314,-1237,-3756
1226,19845,3249,2689,164,-1524,86,165,-1047,-2695
1227,19845,3158,2690,1834,658,-242,-122,1729,-3644
1228,19845,3256,2689,3194,-196,-1074,668,-1031,-3918
1229,19833,3294,2689,-72,330,-798,688,465,-3175
1230,19833,3325,2688,4898,-600,-4270,420,363,-3851
1231,19762,3489,2689,-174,-2124,-3224,882,-634,-4572
1232,19499,2459,2689,2542,-758,-8920,291,1170,-4581
1233,19499,3624,2689,948,3178,-9172,-55,-796,-6200
1234,19570,3113,2689,-164,2838,-3986,-538,-65,-2515
1235,19570,2935,2691,1722,-306,-1280,-212,-361,-4384
1236,19941,3432,2689,2440,-2730,-9910,-251,-1837,-5097
1237,20312,3134,2689,2830,-550,-2856,1459,1195,-15822
1238,20312,2812,2690,1076,-288,-3742,152,-304,-4885
1239,20419,3174,2689,2734,156,-6156,-57,1049,-3040
1240,20419,3152,2688,-674,926,1574,-455,1481,-4065
1241,20228,3283,2689,3896,-2596,-2414,333,227,-4652
1242,20228,3146,2689,3114,-1478,-6698,-41,760,-5132
1243,19702,3284,2690,4108,-748,-4050,388,-615,-3479
1244,18853,3202,2689,4440,-958,-4910,-170,-853,-4171
1245,18853,3050,2688,6346,-2640,-4292,-6,-377,-1684
1246,18088,3170,2690,386,186,-2664,58,-1279,-3547
1247,18088,3236,2688,2166,-2422,-2722,-455,576,-2326
1248,16808,3155,2689,2450,-960,-4144,291,-688,-3520
1249,16808,3277,2689,-2266,1748,-3522,326,909,-3382
1250,15887,3179,2689,-1176,994,-3278,-609,319,-5315
1251,13950,3062,2688,-1620,-1000,-5708,-9,-113,-1428
1252,13950,3175,2689,-2048,-586,-1068,550,-217,-1852
1253,12779,3171,2691,-2746,-446,-6356,253,-1158,-705
1254,12779,3091,2688,-4318,704,-3242,941,-1119,591
1255,11870,3232,2688,-3590,922,-5048,346,-1094,2610
1256,11870,3215,2685,-4724,1460,-6822,-25,-249,5272
1257,11416,3179,2687,-432,-380,-2314,7,-913,3565
1258,10949,3091,2687,-1742,2204,-9062,1044,379,2616
1259,10949,3166,2690,-4728,-676,-2138,349,-608,3992
1260,10500,3077,2690,-2722,-3408,-3414,637,697,6669
1261,10500,3198,2689,-6006,-568,-3200,-132,-243,5555
1262,10500,3370,2688,-1688,-2462,-4948,-22,-399,1119
1263,10500,2944,2689,-3528,1930,-1386,1302,-1323,2027
1264,10500,3080,2689,-4602,1568,-2124,-255,-387,5250
1265,10500,3212,2689,-3372,-4294,-4326,304,-593,5993
1266,10500,3151,2689,-794,-18,-9476,-881,544,8386
1267,10500,3233,2689,-4674,148,-3436,-545,233,7845
1268,10500,2951,2689,-2040,-274,-1226,746,-288,4838
1269,10500,3264,2690,-2618,762,-1000,-497,928,1982
1270,10500,3260,2689,-2476,-456,-4948,-80,-1666,7470
1271,10500,3082,2689,-8042,298,-5232,-390,-228,6612
1272,10500,3013,2689,-3780,2120,-3728,-467,-157,6680
1273,10500,3166,2687,-6324,-2394,-2456,162,179,5879
1274,10500,3271,2686,-2176,-2802,-2342,-354,354,9259
1275,10500,2821,2688,-1818,-812,-1664,-142,-148,7081
1276,10500,3302,2690,-1064,102,-2700,-9,325,8534
1277,10500,3409,2691,-2536,-2028,-4768,382,-55,5051
1278,10500,3135,2691,-4150,-732,-8116,447,-471,4835
1279,10500,3136,2690,-5866,2246,-3264,-600,760,3547
1280,10500,3121,2687,-3538,-148,-1500,152,287,5755
1281,10500,3280,2687,-3270,-2074,-578,504,687,5195
1282,10500,3264,2691,-2254,-2526,-5782,427,617,5764
1283,10500,3239,2692,-3792,1596,-9202,33,-246,3394
1284,10985,3263,2688,-5666,-1014,-7182,49,-659,6120
1285,10985,2701,2689,-1558,1024,-4880,863,-1246,6176
1286,11870,2931,2688,-6238,-144,-2912,-134,-687,7205
1287,11870,3132,2688,-2152,-192,-2944,7,519,6297
1288,13173,3403,2691,-2320,-3814,-4320,1572,350,4873
1289,13173,2889,2689,-1616,298,-4534,-42,325,5981
1290,14417,3248,2688,-1240,2176,-2764,-183,-373,5587
1291,15218,3229,2690,-6262,1898,-500,-2182,-732,12610
1292,15218,3137,2688,-1688,-1012,-6406,191,1122,6176
1293,16294,3023,2687,-2624,-356,-2816,-852,948,5885
1294,16294,3094,2689,234,-972,-3924,-213,58,8201
1295,17167,3196,2692,282,2080,-3430,169,1834,4281
1296,17215,3118,2692,860,-1162,-6940,230,75,804
1297,17215,2930,2689,-2112,-1088,-326,972,-291,5760
1298,17334,2929,2691,-1448,-542,-3094,559,-110,-2023
1299,17334,2012,2691,-2052,726,-3122,672,583,1635
1300,17346,1826,2690,-1478,-2788,-1224,1556,-1247,3031
1301,17346,1635,2690,524,758,-8364,485,195,-163
1302,17358,1644,2691,-658,-5968,-880,437,618,1131
1303,17370,1447,2689,-1452,-4404,-904,668,407,-267
1304,17370,1572,2688,874,-5928,-3900,472,-28,376
1305,17370,1632,2689,640,-3664,-5232,204,-780,-322
1306,17370,1463,2692,-524,-3608,-720,-35,-370,188
1307,17358,1308,2690,-694,-2578,-5508,-223,509,-414
1308,17358,932,2691,-1128,-1180,-3194,-61,128,-98
1309,17454,945,2690,102,-4848,-6028,272,125,214
1310,17789,1113,2689,-1014,-5090,-1784,346,-739,246
1311,17789,1239,2688,-1018,-2500,-6300,30,-119,-119
1312,18135,1405,2689,-258,-2046,-6976,14,-250,161
1313,18135,1373,2689,502,-2838,-3478,-41,1170,-116
1314,18255,1146,2689,-920,-1238,-5110,133,-319,-717
1315,18255,1065,2690,22,-4550,-6948,52,103,-157
1316,18315,919,2690,828,-1346,-5330,-83,217,-66
1317,18327,1201,2688,926,-2270,-6112,-197,-190,-647
1318,18327,1118,2689,308,-338,-6734,-460,-494,-614
1319,18315,912,2690,310,-3414,-5544,330,240,-372
1320,18315,993,2690,198,-706,-5356,65,-281,-428
1321,18207,927,2691,-498,-4130,-1606,43,122,43
1322,18088,1026,2690,226,-1734,-4476,172,-11,93
1323,18088,658,2689,756,-2250,-5284,181,-237,-393
1324,17956,761,2690,-68,-814,-4502,10,68,-148
1325,17956,708,2690,494,-1254,-6110,68,65,-378
1326,17777,637,2689,-1042,-764,-2168,211,-170,-313
1327,17777,591,2689,984,-2486,-4314,98,74,-95
1328,17609,595,2690,730,-3266,-3044,178,-78,-334
1329,17550,459,2688,344,-806,-3720,-148,-145,14
1330,17550,487,2690,126,-56,-4504,-80,68,-255
1331,17490,414,2689,-182,-2250,-3774,313,-517,-500
1332,17490,384,2690,100,-554,-4156,-158,-110,-331
1333,17466,365,2689,-166,-2720,-3774,233,-142,-37
1334,17466,305,2689,166,-700,-4354,42,20,-211
1335,17394,296,2691,100,-414,-4040,-99,39,-278
1336,17370,260,2690,-6,-688,-3684,46,123,-275
1337,17370,224,2691,24,-654,-4352,75,-2,-505
1338,17346,195,2689,44,-466,-4002,-142,-44,-66
1339,17346,183,2690,-130,-774,-3612,30,-49,217
1340,17334,148,2690,-104,-306,-4274,84,45,96
1341,17334,143,2689,-120,-704,-3874,-70,30,-84
1342,17370,125,2689,-204,-556,-3790,-39,99,-31
1343,17358,89,2690,-76,-584,-3948,65,8,11
1344,17358,68,2690,74,-564,-3904,-41,157,-346
1345,17334,72,2689,-28,-640,-3794,133,-72,37
1346,17334,51,2691,-100,-250,-4070,36,178,51
1347,17358,39,2690,-58,-224,-4024,49,151,55
1348,17358,30,2690,-30,-290,-3836,-28,-144,129
1349,17358,27,2691,-86,-162,-3932,-38,-94,61
1350,17370,28,2689,-40,-70,-3994,-67,-8,-145
1351,17370,25,2689,16,-268,-3932,107,207,96
1352,17370,34,2689,0,-142,-3954,4,281,-255
1353,17370,32,2690,-86,38,-3856,49,-53,-122
1354,17358,19,2690,24,-168,-3972,40,2,143
1355,17358,12,2688,-2,-230,-4096,-125,-179,149
1356,17358,3,2690,-54,158,-4062,-38,-164,49
1357,17322,1,2689,44,-258,-3852,120,-313,-296
1358,17322,0,2691,-76,170,-3976,30,-275,-84
1359,17227,1,2690,-48,-24,-3964,36,-34,128
1360,17227,0,2690,14,-132,-3870,-16,29,37
1361,17143,0,2691,-38,108,-4022,3,-142,417
1362,17143,0,2691,-188,6,-3930,-15,-78,202
1363,17143,0,2690,-40,-106,-4038,0,23,155
1364,17131,0,2690,66,2,-3870,0,-37,-175
1365,17131,0,2691,-8,-24,-3956,49,-75,-25
1366,17131,0,2690,50,-134,-3898,-12,-62,-42
1367,17131,0,2689,-36,90,-4014,-39,-428,308
1368,17107,0,2689,-52,152,-4012,-132,-246,300
1369,17107,0,2691,46,-102,-3952,-29,23,-164
1370,17107,0,2691,-18,12,-3914,-15,335,-328
1371,17107,0,2690,-52,24,-3988,32,-3,-285
1372,17107,0,2692,0,-78,-3936,75,-287,-234
1373,17107,0,2690,-54,-40,-3928,-83,453,-48
1374,17107,1,2688,-26,18,-3872,36,-129,-28
1375,17107,0,2690,-16,18,-3918,-51,363,167
1376,17047,0,2691,-38,-6,-3912,49,-104,13
1377,17047,0,2690,88,-156,-3900,-3,-246,-260
1378,17035,0,2689,24,28,-3962,-2,196,-60
1379,17035,0,2689,2,-158,-3904,-9,119,132
1380,17035,0,2690,-50,96,-3900,-148,191,526
1381,17035,0,2689,-44,-216,-3848,-22,-24,158
1382,17035,0,2691,-52,174,-4106,159,109,-196
1383,17047,0,2690,-22,-32,-3966,59,265,-372
1384,17047,0,2690,-32,36,-3948,3,90,-187
1385,17035,0,2690,-58,-78,-3912,-3,433,-476
1386,17035,0,2689,-14,0,-3898,-41,186,-278
1387,17119,0,2690,-30,12,-3842,23,17,-222
1388,17131,0,2690,-24,-66,-3972,-96,8,-125
1389,17131,0,2689,-26,-12,-4000,1,-69,-428
1390,17143,0,2691,12,28,-4010,10,125,-319
1391,17143,0,2689,-32,-84,-4006,62,-75,-107
1392,17119,1,2689,-32,-2,-3918,14,87,-134
1393,17119,0,2689,-4,144,-4080,-112,309,308
1394,17047,0,2689,-4,-258,-3874,-35,220,117
1395,17035,0,2689,-50,166,-4038,-128,62,179
1396,17035,0,2688,-70,-34,-3898,-13,-66,-231
1397,17035,0,2688,-32,-112,-3922,-9,14,163
1398,17035,0,2691,14,-204,-3830,101,27,14
1399,17047,0,2690,-4,-40,-4008,-106,160,341
1400,17047,0,2689,-8,156,-4084,20,27,232
1401,17035,-1,2689,-28,52,-3920,36,33,84
1402,17131,0,2690,18,-198,-3802,85,119,-75
1403,17131,0,2690,-4,70,-3996,-26,71,37
1404,17143,0,2690,-40,10,-3934,107,-478,-325
1405,17143,0,2690,34,96,-3970,39,-171,-211
1406,17155,1,2689,2,-44,-4008,-51,65,-222
1407,17155,1,2691,-10,-114,-3856,-90,-18,84
1408,17251,0,2689,-52,70,-3960,-48,306,128
1409,17358,0,2690,-16,4,-3972,1,186,-22
1410,17358,0,2689,124,-80,-3952,172,-246,-393
1411,17550,1,2689,4,-180,-3824,236,-570,-148
1412,17550,0,2688,-120,-148,-3856,-25,78,20
1413,17908,0,2690,-108,314,-3698,7,290,-296
1414,18076,-1,2690,502,70,-3894,55,10,137
1415,18076,-1,2690,-372,-16,-4390,-26,-177,102
1416,18147,0,2689,-54,68,-3778,23,27,241
1417,18147,0,2690,-126,78,-3920,87,-336,-13
1418,18076,0,2690,112,-196,-4068,136,-126,217
1419,18076,0,2689,-44,28,-3990,59,84,117
1420,18088,-1,2690,-100,50,-3966,13,23,122
1421,18123,-1,2690,-16,-80,-3898,-67,-116,34
1422,18123,0,2690,112,-216,-3874,56,59,-148
1423,18195,0,2690,-56,4,-3990,78,-208,-240
1424,18195,0,2690,-6,14,-3894,62,-53,-172
1425,18398,0,2691,-180,-88,-4068,-48,-469,67
1426,18398,1,2691,588,-110,-3964,-141,-100,58
1427,18566,0,2692,-156,196,-3850,62,-107,-284
1428,18614,0,2690,30,-6,-3822,-22,71,-81
1429,18614,0,2691,-128,-42,-3906,-29,-69,-143
1430,18733,0,2689,-132,-140,-4070,175,-297,-405
1431,18733,0,2690,204,-84,-3986,46,182,-213
1432,18757,-1,2691,-2,102,-4000,-22,30,108
1433,18757,0,2690,6,-128,-3850,-96,278,426
1434,18793,0,2690,2,50,-3904,7,-21,134
1435,18853,0,2689,102,-160,-3902,1,-208,143
1436,18853,1,2689,244,168,-4572,43,-116,-570
1437,18984,-29,2691,-176,-158,-4000,-48,20,-5
1438,18984,-110,2690,282,-508,-3652,0,407,-28
1439,19068,-151,2690,-10,-352,-4114,30,113,468
1440,19068,-186,2689,-366,-1322,-3808,-48,-161,341
1441,19068,-56,2691,-292,-1374,-3956,-19,-11,120
1442,19056,-71,2690,14,-1500,-3884,20,303,-266
1443,19056,-101,2690,76,-1798,-4146,140,-186,-514
1444,19140,-149,2689,-82,-2048,-4128,39,123,-75
1445,19140,-206,2689,336,-1600,-4402,-181,45,609
1446,19140,-215,2689,-226,-906,-4362,-248,-148,532
1447,19128,-261,2690,230,-420,-3618,4,109,55
1448,19128,-293,2689,468,-212,-5068,-70,151,-210
1449,19176,-337,2690,-236,-458,-3488,98,11,-349
1450,19176,-351,2690,-258,100,-4236,-158,-132,-16
1451,19200,-345,2689,-36,310,-3818,-42,-247,290
1452,19200,-365,2690,-176,362,-3914,7,347,482
1453,19200,-337,2690,-118,166,-3802,-51,81,742
1454,19224,-383,2690,626,-1276,-4102,-3,-18,-281
1455,19224,-285,2690,108,598,-4198,-51,-376,123
1456,19295,-392,2690,162,-380,-3862,16,-298,361
1457,19295,-295,2690,182,-58,-3870,-25,122,727
1458,19379,-316,2691,114,324,-4000,65,68,700
1459,19379,-264,2691,258,-102,-3638,1,-11,-201
1460,19439,-246,2688,-140,1264,-4164,52,1,606
1461,19475,-346,2690,730,1072,-4836,23,128,538
1462,19475,-235,2690,-176,-182,-3902,-135,201,287
1463,19534,-363,2690,176,50,-4112,-161,325,-89
1464,19534,-200,2689,-126,448,-3686,-187,36,73
1465,19546,-301,2689,100,1548,-4526,-57,367,529
1466,19546,-304,2689,-114,24,-3296,65,-262,329
1467,19594,-238,2690,-360,1352,-4080,-80,338,585
1468,19606,-350,2690,-430,-410,-2852,104,49,-1684
1469,19606,-196,2692,-124,-680,-4026,10,182,87
1470,19642,-348,2691,-156,86,-4234,85,5,241
1471,19642,-245,2692,14,360,-3250,4,-183,627
1472,19642,-247,2689,232,-996,-3222,-41,-319,830
1473,19678,-298,2690,374,-174,-4308,43,147,-375
1474,19678,-198,2689,248,-210,-3954,-193,-180,806
1475,19678,-341,2690,0,288,-3680,-6,109,222
1476,19678,-232,2689,-182,370,-3304,10,-15,-263
1477,19678,-290,2692,650,-792,-3428,-154,255,294
1478,19678,-298,2689,-4,-564,-3378,-80,93,532
1479,19690,-229,2690,30,12,-4466,-135,262,700
1480,19785,-371,2689,-52,-94,-4154,-148,-59,659
1481,19785,-234,2690,-292,-480,-3300,-28,151,279
1482,19785,-332,2689,198,604,-4596,-41,167,-122
1483,19785,-230,2688,-170,-204,-3142,-74,-399,185
1484,19774,-331,2689,-58,40,-4178,85,-227,388
1485,19774,-300,2690,-10,-858,-3730,20,71,-166
1486,19785,-226,2690,28,290,-4040,43,-110,414
1487,19797,-348,2690,-272,-474,-2920,1,1,636
1488,19797,-211,2690,70,-96,-4200,-45,154,-113
1489,19833,-296,2690,-100,-356,-3732,78,71,-417
1490,19833,-238,2691,-68,-630,-3522,14,-97,135
1491,19881,-238,2689,-136,-454,-4142,-48,46,636
1492,19881,-258,2689,-164,-1028,-3914,27,24,580
1493,19905,-263,2690,566,-1440,-4416,71,141,623
1494,19941,-300,2691,-172,-1522,-3108,198,-119,353
1495,19941,-314,2690,4,-2384,-3566,175,-269,40
1496,20013,-346,2690,-284,-478,-4532,198,-142,-119
1497,20013,-389,2689,96,-208,-4206,39,144,406
1498,20072,-468,2691,686,-1834,-6346,197,112,703
1499,20072,-466,2689,360,-1584,-5696,4,-243,883
1500,20144,-496,2689,-636,-1566,-3302,-371,243,544
1501,20156,-553,2690,-172,-2004,-2988,-142,-212,547
1502,20156,-594,2690,104,-1156,-3754,-145,271,335
1503,20180,-612,2690,-416,564,-4840,-239,239,833
1504,20180,-657,2690,486,456,-5212,10,90,479
1505,20192,-719,2691,366,-666,-4070,223,309,724
1506,20228,-641,2690,64,130,-3810,-177,268,1092
1507,20228,-627,2691,-172,852,-4430,-278,324,1186
1508,20228,-674,2690,148,-136,-4306,-135,367,880
1509,20228,-672,2690,4,1158,-3738,256,-256,954
1510,20240,-650,2690,78,1124,-6052,304,-69,-567
1511,20240,-651,2688,184,-172,-3380,-22,-316,983
1512,20288,-525,2690,-384,-980,-3502,-152,-806,1042
1513,20300,-665,2690,258,312,-4340,-316,-624,2401
1514,20300,-560,2690,246,-1056,-2770,37,218,877
1515,20300,-623,2689,240,-236,-3900,-112,33,2044
1516,20300,-619,2689,-20,256,-2788,-55,398,1219
1517,20312,-585,2689,498,832,-3240,-174,78,1275
1518,20312,-566,2689,1028,938,-4926,-287,-59,1673
1519,20312,-588,2690,-382,-840,-2646,-238,452,1747
1520,20300,-550,2689,-290,-48,-3598,-222,-392,1181
1521,20300,-617,2689,-412,-418,-1042,-103,-78,1033
1522,20288,-603,2691,58,870,-3902,149,217,1402
1523,20288,-623,2690,804,2,-4422,-235,407,1510
1524,20312,-596,2689,-106,710,-5020,-77,-36,524
1525,20312,-565,2688,-100,1408,-3428,269,389,-1702
1526,20288,-537,2690,-42,-70,-3044,17,-161,526
1527,20300,-593,2690,-286,-972,-1814,-148,-56,1033
1528,20300,-614,2689,136,-420,-3286,140,437,-812
1529,20288,-513,2690,-44,750,-3830,133,706,524
1530,20288,-567,2691,168,-586,-2526,227,287,441
1531,20288,-561,2689,-288,1300,-3772,-93,373,1711
1532,20312,-586,2692,-516,-20,-3092,4,481,1193
1533,20312,-485,2690,360,-1072,-3196,-225,652,1107
1534,20300,-525,2690,424,462,-4980,-134,189,963
1535,20300,-569,2689,38,26,-3608,223,-56,526
1536,20300,-576,2689,718,1586,-4562,311,-180,-95
1537,20300,-489,2690,-194,38,-3226,-177,30,742
1538,20312,-574,2690,102,26,-3928,39,151,1322
1539,20312,-501,2689,-62,-584,-2680,-183,220,612
1540,20312,-585,2689,-428,514,-3340,-109,-88,179
1541,20264,-529,2689,6,-530,-3026,-325,-361,1791
1542,20264,-564,2690,114,-54,-3954,-96,208,279
1543,20132,-510,2690,346,418,-4498,79,183,-311
1544,20132,-457,2690,-232,-722,-1634,10,265,1163
1545,19905,-414,2690,22,82,-2862,-77,-44,1560
1546,19224,-273,2690,126,-316,-3760,33,78,739
1547,19224,-175,2689,156,1352,-3532,-142,-69,547
1548,18327,-231,2690,-86,960,-3536,-64,-82,334
1549,18327,-299,2689,1060,716,-4990,130,68,600
1550,17573,-410,2689,3894,-674,-3746,74,166,122
1551,17573,-341,2690,-2286,2306,-4210,349,-307,718
1552,17310,-372,2690,1648,824,-3840,359,1027,765
1553,17155,-262,2688,1586,1094,-3082,-380,-840,303
1554,17155,-314,2692,326,1752,-3784,-122,408,8
1555,17131,-226,2692,18,498,-4288,249,-542,-287
1556,17131,-241,2688,-878,678,-3754,-99,300,367
1557,17035,-217,2691,172,1154,-3902,-41,-246,196
1558,17035,-153,2691,162,1018,-4404,-22,1,509
1559,17000,-145,2690,94,520,-3564,-38,17,-178
1560,16964,-134,2688,-268,304,-3950,-128,11,108
1561,16964,-148,2691,-140,512,-4154,72,-370,-196
1562,16796,-83,2690,262,528,-3928,-77,-27,-526
1563,16796,-66,2688,164,726,-3748,13,519,-205
1564,16653,-47,2689,14,610,-4104,146,-78,211
1565,16282,-37,2690,-220,606,-4130,-22,-132,-66
1566,16282,-28,2689,6,356,-3824,-3,-307,63
1567,15840,-15,2690,174,362,-3830,49,-151,-175
1568,15840,15,2690,-142,1336,-4052,-26,122,-282
1569,15194,57,2691,4032,1900,-4636,-122,-396,-588
1570,15194,134,2691,-2534,4402,-4542,14,55,137
1571,14608,181,2691,504,2080,-4246,159,516,450
1572,14082,241,2688,-1474,3596,-4424,-9,-456,414
1573,14082,426,2689,-2696,5466,-3404,-406,367,279
1574,13771,429,2691,-632,184,-3008,78,-40,547
1575,13771,517,2689,-846,3900,-2826,224,-401,356
1576,13604,582,2689,-232,-1376,-3092,204,-72,285
1577,13604,616,2689,248,-752,-3076,101,-269,633
1578,13532,694,2690,-168,50,-3738,65,119,868
1579,13544,706,2690,-168,1000,-4992,-3,334,1310
1580,13544,739,2688,-298,200,-2256,185,-53,1078
1581,13556,789,2689,-1174,1204,-4298,165,-244,166
1582,13556,892,2689,-438,2234,-3794,23,1,497
1583,13532,764,2691,-182,-120,-2406,381,20,830
1584,13532,833,2689,-1132,-160,-4940,226,134,1071
1585,13245,865,2690,-386,334,-3644,-135,-316,921
1586,13054,883,2690,-360,-502,-5084,-45,167,1732
1587,13054,873,2689,-32,174,-2438,-287,-116,1001
1588,12827,969,2691,244,-240,-2992,100,-453,1101
1589,12827,902,2690,-404,-120,-4318,259,5,830
1590,12791,890,2689,-320,214,-4952,1,300,1558
1591,12791,932,2688,-578,-1166,-4162,27,27,2133
1592,12683,883,2690,-484,-104,-5006,78,-227,2301
1593,12683,954,2690,-818,-738,-3334,-96,361,1641
1594,12683,899,2691,-780,792,-4140,39,254,1239
1595,12480,920,2690,-1370,-766,-3402,127,195,798
1596,12480,831,2689,-372,-888,-4768,14,-294,270
1597,12229,880,2691,-698,214,-3674,-93,255,1944
1598,11978,887,2691,-82,568,-2914,-119,240,2115
1599,11978,944,2692,-494,448,-3274,-29,-91,1696
1600,11774,915,2691,-842,-820,-2178,-322,-27,1543
1601,11774,954,2689,-412,460,-4460,300,93,1319
1602,11750,968,2691,-646,1148,-4676,7,465,1269
1603,11750,1031,2691,-2030,2368,-4644,-86,-138,1452
1604,11882,1022,2690,-1688,-530,-3460,23,49,1667
1605,12217,1073,2689,-560,2116,-4430,-80,-138,2230
1606,12217,1087,2688,-1244,1654,-5622,-348,90,2080
1607,12695,1067,2690,-240,-1382,-2588,56,-119,1971
1608,12695,1080,2689,216,3398,-6698,58,-447,1905
1609,13281,1096,2690,-494,-1678,-2222,130,443,1938
1610,13281,1101,2691,-98,-308,-3332,81,-97,2245
1611,14058,1024,2690,-2280,878,-4086,75,-259,2156
1612,14787,1169,2689,22,930,-4528,49,630,2100
1613,14787,1248,2690,390,860,-4902,-87,-250,1416
1614,15230,1197,2690,1120,-364,-3190,207,-389,553
1615,15230,1282,2691,1460,1964,-5716,-77,243,1148
1616,15852,1281,2690,-658,1066,-2380,191,-84,1163
1617,15852,1289,2690,1584,566,-4906,-16,-107,1177
1618,16473,1315,2691,-758,794,-4868,-199,-456,692
1619,16964,1365,2691,2718,248,-6000,-319,528,588
1620,16964,1346,2688,472,-1216,-4960,-303,376,2194
1621,16988,1525,2691,822,822,-2368,45,188,-341
1622,16988,1286,2690,-104,2554,-3848,194,551,-257
1623,17047,1412,2690,1036,490,-5208,-54,319,-402
1624,17107,1570,2689,836,1488,-4062,-439,39,529
1625,17107,1398,2689,600,1034,-7754,-83,107,353
1626,17143,1509,2690,1000,-1376,-5550,85,-161,-234
1627,17143,1555,2691,-288,-138,428,91,-510,-10
1628,17119,1621,2689,-730,702,-4356,-545,-234,20
1629,17119,1626,2688,540,654,-3720,72,-220,382
1630,17047,1613,2690,-892,1210,-2698,650,-236,376
1631,17047,1661,2689,-1494,614,-1032,62,278,-101
1632,17047,1634,2689,22,1072,-1192,98,-58,403
1633,17047,1703,2690,408,-1136,-4284,10,131,632
1634,17047,1813,2689,-124,-656,-6456,-593,-5,161
1635,17047,1545,2689,-222,1408,-2522,-6,-570,-579
1636,17047,1694,2689,-920,4,-562,20,-291,406
1637,17047,1697,2688,92,1238,-2646,185,55,70
1638,17047,1704,2690,76,-392,-1596,187,738,956
1639,17047,1881,2690,-1192,-190,-4402,-251,-59,-78
1640,17035,1610,2688,1380,140,-5472,-93,541,-479
1641,17035,1762,2690,240,-2404,-2002,417,119,-1030
1642,17047,1773,2690,1350,-1638,-7630,194,-15,-313
1643,17047,1745,2690,816,994,-4652,-9,-697,544
1644,17035,1733,2689,-1456,2270,-396,-300,-859,-287
1645,17035,1808,2689,1588,-110,-8398,-74,693,485
1646,17035,1798,2689,1592,744,-4832,-22,-145,-175
1647,17047,1856,2689,-616,1134,-3020,504,-15,-128
1648,17047,1825,2691,-654,854,-1876,637,-256,-644
1649,17047,1835,2689,1084,-380,-5196,-312,-243,-19
1650,17047,1667,2689,930,-540,-6626,36,325,217
1651,17035,1862,2690,1290,-1866,-3486,-277,68,795
1652,17119,2048,2690,624,708,-4704,-28,770,618
1653,17119,1857,2689,496,1488,-4704,188,465,653
1654,17107,1721,2690,-1092,660,-4542,-58,271,-426
1655,17107,1851,2690,1208,-1386,-3472,-184,64,90
1656,17143,1938,2689,-30,-888,-3972,-364,-548,258
1657,17143,1888,2690,426,666,-3282,-103,-240,60
1658,17143,1910,2692,386,-868,-1668,397,-634,-28
1659,17119,1999,2691,-146,534,-2988,340,236,-39
1660,17119,1565,2690,-940,-768,-3712,-57,100,5
1661,17131,1894,2689,916,198,-4444,201,43,-1401
1662,17131,1981,2690,44,18,-4758,340,-110,-387
1663,17131,1664,2689,266,-298,-2726,-32,284,-290
1664,17143,1763,2690,-432,-914,-4322,-274,414,574
1665,17143,1827,2689,-94,978,-5508,-222,-170,305
1666,17131,1759,2689,542,950,-4066,-19,373,-425
1667,17131,1712,2691,430,556,-3892,116,93,-335
1668,17155,1816,2690,-722,-826,-6498,165,109,700
1669,17155,1650,2689,-168,1086,-2636,-48,191,-220
1670,17167,1765,2689,-582,-1030,-3368,-274,214,791
1671,17227,1757,2688,1042,-460,-4042,-238,614,164
1672,17227,1897,2690,-448,276,-3352,36,211,-60
1673,17346,1719,2689,-232,-266,-3168,156,8,627
1674,17346,1872,2690,-548,-168,-2926,117,-272,-255
1675,17370,1777,2690,-58,476,-7758,-26,147,-367
1676,17370,1974,2689,-92,524,-5070,-287,-653,-423
1677,17382,1732,2689,-1914,652,-1104,-287,665,476
1678,17454,1749,2688,-1140,618,-3932,39,875,1033
1679,17454,1846,2690,736,-290,-5638,-225,808,25
1680,17825,1722,2690,188,-870,-2778,36,-548,-63
1681,17825,1869,2691,1882,-44,-5876,-128,589,108
1682,18171,1777,2691,72,1008,-3718,27,-335,-817
1683,18494,1622,2690,816,-638,-4648,233,-53,-119
1684,18494,1800,2690,268,-592,-5462,449,112,-986
1685,18745,1788,2690,1526,-1024,-4684,-252,614,-217
1686,18745,1795,2691,166,266,-3820,-616,-167,1909
1687,18793,1691,2690,856,-194,-2946,17,-323,105
1688,18793,1755,2689,348,-684,-3502,243,-170,-1377
1689,18781,1815,2690,72,428,-3466,340,-186,-2235
1690,18781,1741,2691,-594,-28,-2774,217,-570,-1469
1691,18781,1774,2690,740,-970,-7350,369,-700,865
1692,18793,1554,2691,930,374,-4412,172,630,-1522
1693,18793,1981,2689,-608,724,-4954,-212,929,-3635
1694,18781,1516,2689,728,-494,-3080,-125,862,-1433
1695,18781,1730,2690,298,-1082,-3792,213,99,-1225
1696,18781,1948,2690,928,-494,-6022,46,135,-1687
1697,18781,1443,2690,366,-2084,-1850,1,211,-779
1698,18781,1813,2691,562,-94,-5696,-103,-31,-4711
1699,18781,1637,2689,-200,-2152,-2936,265,-462,-1130
1700,18781,1745,2689,1278,-2,-5102,-267,-332,385
1701,18793,1802,2690,428,1082,-4280,-396,-129,-826
1702,18793,1864,2689,208,564,-5860,-600,-170,-1286
1703,18793,1700,2688,812,1520,-4252,-403,207,-889
1704,18781,1751,2691,-682,1060,-1692,52,116,-1345
1705,18781,1747,2692,1486,-22,-7398,411,551,-496
1706,18781,1738,2691,592,28,-6322,88,-459,-1522
1707,18781,1750,2689,162,390,-2490,-139,426,-768
1708,18793,1705,2689,930,-1192,-4976,-290,52,-956
1709,18793,1843,2689,-1024,2282,-2942,-755,71,-1395
1710,18781,1954,2690,-828,224,-822,346,-520,-1867
1711,18781,1570,2692,570,-1202,-3644,265,-163,-1112
1712,18781,1851,2690,-704,-1334,-2372,-467,-46,-1177
1713,18781,1884,2689,1054,994,-4482,-174,397,-1867
1714,18781,1788,2688,1760,1154,-6980,1,586,-1481
1715,18757,1855,2688,-148,1084,-978,201,417,-2046
1716,18733,1819,2689,874,-1062,-3824,539,-63,-2023
1717,18733,1814,2691,614,1806,-5556,-206,318,-1867
1718,18673,1833,2689,1262,102,-1792,-252,-612,-2171
1719,18673,1817,2689,-770,1544,-2950,-306,-284,-1999
1720,18518,1884,2690,1284,400,-6818,-116,-211,-1351
1721,18518,1780,2690,18,1182,-6604,-502,-217,120
1722,18279,1917,2691,1348,572,-3856,701,-380,-3069
1723,18088,1776,2689,504,1520,-5998,91,74,-2341
1724,18088,1855,2689,604,-204,-2330,-241,265,-1398
1725,17789,1771,2690,2,-150,-2662,-225,900,-1383
1726,17789,1833,2690,210,-838,-3718,78,322,-1277
1727,17346,1886,2691,348,556,-5478,59,-126,-1587
1728,17346,1762,2691,-702,-146,-3966,185,-199,-1590
1729,17143,1914,2690,426,692,-4224,-213,-56,-1334
1730,17131,1732,2690,-488,-834,-1342,46,-529,-1168
1731,17131,1765,2690,-1524,238,-1632,-109,-49,-549
1732,17119,1804,2689,-776,848,540,488,-119,-1878
1733,17119,1616,2689,394,-804,-7292,227,-110,-1224
1734,17035,1865,2690,918,506,-6694,20,-20,-1077
1735,17035,1987,2690,614,-490,-3168,475,-88,-1531
1736,17047,1678,2689,-70,962,-4850,256,65,-673
1737,17047,1943,2690,544,-1076,-3448,340,-46,-776
1738,17047,1554,2691,-28,24,-4620,68,242,-146
1739,17107,1869,2690,12,1754,-3442,-422,316,-608
1740,17107,1910,2690,1644,1074,-4170,172,5,-779
1741,17107,1837,2689,288,-2110,-3204,508,-456,370
1742,17119,1836,2689,1758,-1360,-4764,327,160,-369
1743,17119,1900,2689,-820,1078,-402,-9,-281,-859
1744,17107,1850,2691,-1214,2312,-4178,29,391,-706
1745,17107,1884,2688,-510,1100,-994,56,1310,-443
1746,17119,1845,2690,-530,328,-2480,220,-650,-741
1747,17119,1905,2691,-666,-888,-3132,291,217,-897
1748,17035,2038,2688,168,2848,-6364,10,418,-673
1749,17047,1786,2690,1174,-1412,-5352,-148,-424,-464
1750,17047,1925,2691,424,-40,-4930,466,128,-897
1751,17119,1891,2691,-1042,-904,-1488,188,881,-1254
1752,17119,1892,2688,1246,598,-6698,-248,1262,-652
1753,17119,2001,2689,824,-50,-6104,-200,23,-2224
1754,17119,1870,2690,118,1064,-4798,169,-211,-449
1755,17131,1933,2690,90,1860,-3586,317,-1066,-853
1756,17167,1951,2690,534,-800,-1872,349,-158,-10
1757,17167,1899,2688,202,1136,-4188,-361,-262,615
1758,17155,1952,2690,-622,-1434,-2186,74,-12,-638
1759,17155,1947,2692,-534,-1306,-3758,398,-431,-1740
1760,17370,1962,2688,182,-966,-3720,-364,-15,-1227
1761,17370,2003,2689,160,390,-3408,43,-1196,-561
1762,17789,1977,2692,314,950,-3550,178,388,-1048
1763,18183,1982,2690,1228,1444,-3286,-196,236,-638
1764,18183,2032,2689,-760,1456,-5006,88,408,-1339
1765,18614,2061,2689,-68,2054,-2634,-300,398,-361
1766,18614,2031,2690,4572,1116,-3752,-122,671,-941
1767,19128,2017,2688,1182,-1648,-5618,320,516,-1374
1768,19128,2125,2689,-3176,74,-516,-26,-872,-137
1769,19690,2131,2692,3030,458,-4954,466,459,-487
1770,20037,2152,2689,1186,-586,-1696,-723,191,-924
1771,20037,2061,2688,552,-620,-2564,46,710,-1551
1772,20240,2186,2691,2576,-830,-2832,-448,-522,432
1773,20240,1907,2689,-524,-210,-3620,-128,-72,-1958
1774,20347,2319,2689,-16,454,-3680,162,538,-1171
1775,20455,2037,2689,1682,332,-1058,449,-767,-2480
1776,20455,1910,2690,612,-1054,-4318,394,684,-2495
1777,20622,2126,2691,2786,-1086,-6318,178,414,-2017
1778,20622,2155,2690,1382,-1182,-4808,-248,264,-3073
1779,20694,1971,2691,2096,944,-7278,46,-15,-2925
1780,20694,2189,2689,320,54,-2276,217,-145,-2987
1781,20718,1938,2691,1048,504,-4418,291,319,-2804
1782,20778,2128,2690,2180,-2658,-5086,310,493,-2937
1783,20778,2093,2689,1240,-964,-3216,269,109,-2748
1784,20802,2081,2689,2310,38,-2920,-232,-390,-1617
1785,20802,2099,2690,1088,-1044,-4108,-93,436,-2283
1786,20862,2021,2689,1754,762,-4374,275,-402,-2412
1787,20862,2015,2690,70,294,-2604,301,-221,-3105
1788,20862,2111,2690,1330,1090,-4936,611,-129,-2158
1789,21041,2242,2689,-298,-1564,-5262,172,539,-3726
1790,21041,2036,2690,830,602,-3502,-539,207,-3241
1791,21053,2174,2689,-380,-254,-2606,-413,513,-3323
1792,21053,2060,2689,756,1902,-3696,42,-371,-2601
1793,21041,2137,2690,1480,1016,-5964,98,519,-4139
1794,21041,2322,2692,1766,-168,-3812,585,109,-5722
1795,21053,1914,2691,1494,138,-5374,-313,252,-3771
1796,20969,2289,2689,42,2400,-1784,-529,147,-2571
1797,20969,2003,2689,82,370,-2590,-16,264,-2454
1798,20957,2036,2689,1230,-1334,-3250,426,-583,-2949
1799,20957,2249,2691,2790,-566,-6940,-25,-427,-3685
1800,20945,2077,2690,448,2294,-4108,-38,-348,-3641
1801,20921,2238,2690,1758,-1364,-3308,-206,-732,-3010
1802,20921,2079,2690,234,-552,-4236,114,31,-3494
1803,20862,2112,2689,1874,-1146,-3656,714,138,-3334
1804,20862,2068,2691,1252,-1214,-5364,324,-335,-3782
1805,20862,2081,2691,798,-170,-5454,-45,849,-3538
1806,20862,2108,2691,1286,-1150,-4310,-151,-110,-3364
1807,20826,2146,2689,1874,-1046,-3510,404,-586,-4054
1808,20730,2102,2689,2348,106,-4614,646,300,-3143
1809,20730,2140,2691,1600,-990,-5588,1192,20,-3765
1810,20634,2084,2691,412,-26,-2496,246,608,-3653
1811,20634,2054,2690,296,414,-4724,198,-408,-4325
1812,20479,2156,2689,1414,-1938,-4764,-196,-706,-3782
1813,20479,2053,2689,680,-320,-2896,301,-202,-3535
1814,20300,2185,2689,1570,-1290,-1778,462,38,-3217
1815,20180,2075,2689,1510,-324,-930,710,-869,-5071
1816,20180,2097,2689,280,1734,-4158,217,404,-3871
1817,20037,1882,2689,-14,82,-344,756,900,-1024
1818,20037,2029,2689,1610,-602,-3850,143,-135,-3903
1819,19833,2092,2690,2116,-934,-6040,165,427,-2889
1820,19833,2001,2690,2004,-1670,-4040,698,68,-3942
1821,19439,2078,2690,2072,-1094,-7326,-99,360,-3152
1822,18853,1976,2691,1856,-786,-5434,-177,-389,-2771
1823,18853,2112,2690,1152,-1332,-6276,-555,-332,-4502
1824,18315,1866,2690,1946,596,-4914,-364,357,-2424
1825,18315,2085,2690,400,-754,-4050,-529,-68,-431
1826,17932,1872,2690,2112,-1650,-3262,149,-876,-3671
1827,17932,2087,2692,-1770,32,-3214,-436,-568,-1251
1828,17454,1902,2689,470,-180,-4008,-312,176,-1902
1829,17155,2026,2687,-1658,466,-5028,382,-669,-5047
1830,17155,1928,2690,-56,-1898,-7392,-86,363,-2624
1831,17143,2063,2690,-520,-690,-2272,-361,617,-909
1832,17143,1833,2690,-3056,-502,-2164,-209,1110,571
1833,17131,2059,2690,-732,-1492,-4834,-280,504,-897
1834,17131,1931,2690,-594,-888,-3072,-280,-122,-1410
1835,17131,2039,2691,-1698,-1122,-3708,-303,-126,-1036
1836,17131,1926,2690,-526,118,-4282,-268,-745,1475
1837,17131,2109,2689,-848,1080,-4412,43,-8,-75
1838,17143,1849,2690,-770,-1236,-2408,265,-138,-361
1839,17143,1908,2689,32,-958,-1008,194,233,-650
1840,17143,1918,2689,732,1206,-3990,23,-606,-724
1841,17143,1931,2690,202,524,-4834,-77,-205,-1345
1842,17143,1920,2689,1130,-1038,-5154,256,-21,-287
1843,17131,1839,2689,836,-1612,-4824,501,-53,-744
1844,17131,1955,2691,560,-1578,-4554,140,30,2958
1845,17131,1862,2690,-156,-138,-2220,307,-148,-435
1846,17131,1950,2691,72,870,-2664,-13,553,-1039
1847,17131,1835,2690,94,1178,-3904,-129,690,-1410
1848,17143,1983,2691,-638,-54,-5482,-216,932,-1127
1849,17143,1940,2691,340,-1244,-3058,3,553,-2026
1850,17131,2179,2688,1312,-1592,-5566,178,874,-1959
1851,17131,1786,2690,334,-2100,-2340,520,-351,-2978
1852,17131,1930,2689,28,342,-3580,262,-183,373
1853,17131,1870,2690,438,2718,-2704,-100,-907,-786
1854,17131,1959,2691,344,2586,-4736,-335,-129,-337
1855,17143,1945,2690,-468,3876,-5336,7,-494,-2114
1856,17143,2020,2689,-1008,1460,-3212,-93,344,1322
1857,17143,1904,2690,570,1074,-4366,104,252,-552
1858,17143,1743,2690,-678,-112,-2092,-106,138,-573
1859,17131,2094,2690,396,794,-4296,-41,11,-941
1860,17167,1922,2688,244,2600,-5358,-190,135,-1545
1861,17167,2185,2689,-3570,2092,-510,110,636,-1531
1862,17155,1825,2689,-1110,2474,-4562,168,191,-282
1863,17155,2165,2689,-150,-460,-3854,-97,249,-1496
1864,17203,1923,2689,-332,-1058,-1894,211,-269,-535
1865,17203,1992,2689,-1450,-330,-2310,-45,-234,31
1866,17251,2057,2690,394,-386,-4848,27,294,-3417
1867,17370,2022,2689,1518,-484,-6202,174,-228,-1245
1868,17370,2021,2689,-152,-92,-4544,168,404,-491
1869,17801,2018,2690,358,100,-3440,194,113,-1115
1870,17801,2118,2689,1286,-320,-5360,314,675,-876
1871,18183,2177,2689,274,-658,-5054,-267,659,1134
1872,18183,1850,2690,-748,1024,-2330,-206,-748,-847
1873,18446,1999,2689,-522,1158,-2304,107,-1602,-717
1874,18626,2093,2689,2014,-366,-6412,213,-504,-1463
1875,18626,2205,2691,884,2062,-6086,-358,-1019,-2056
1876,18733,1954,2690,894,-2088,-7160,42,61,-1080
1877,18733,1997,2688,486,858,-6048,4,599,-2100
1878,18793,2056,2689,374,-418,-4276,-64,-326,-1292
1879,18793,2156,2690,254,-786,-3866,88,-326,-817
1880,18996,1831,2690,862,312,-2866,42,156,-1260
1881,19224,2043,2690,492,-600,-960,188,-275,-1265
1882,19224,2025,2689,-524,-32,-2190,317,64,-1195
1883,19654,2015,2692,-220,-632,-5150,424,-192,-1419
1884,19654,1991,2689,488,-1224,-4226,-99,-110,-2450
1885,19881,1963,2690,200,-680,-3668,-41,684,-1708
1886,20072,1982,2690,-2,1110,-4114,-619,405,-2350
1887,20072,2007,2690,-162,570,-1858,-106,664,-4944
1888,20156,2041,2690,1698,896,-5452,314,-100,-2833
1889,20156,2017,2691,-716,256,-1650,468,-542,-1581
1890,20395,2041,2689,854,832,-5480,404,-570,-2863
1891,20395,1942,2689,1812,1272,-4534,-342,-313,-2589
1892,20766,2047,2690,430,1082,-2776,-535,-554,-2786
1893,21220,2003,2689,1062,-1336,-3526,-103,338,-2657
1894,21220,2110,2689,932,-1696,-3772,-13,-273,-2171
1895,21615,1984,2689,2540,-3486,-3534,1076,427,-4493
1896,21615,2090,2690,2070,-1616,-6290,572,-332,-3387
1897,21866,2023,2689,1104,468,-5680,-151,351,-2548
1898,21866,1947,2690,2044,-160,-5208,-132,14,-2669
1899,22093,2023,2689,2592,554,-5050,566,716,-6405
1900,22320,1783,2689,1546,54,-5934,32,325,-4381
1901,22320,2131,2690,908,64,-4754,-90,-250,-3438
1902,22560,2230,2690,1324,950,-3598,462,271,-3343
1903,22560,1875,2690,758,-358,-2268,301,-348,-3812
1904,22823,2110,2689,1580,-1090,-3496,-152,-377,-4066
1905,22823,2127,2690,1458,-1518,-4506,17,-288,-3385
1906,23014,2078,2690,3408,-846,-6380,87,-228,-4417
1907,23074,2020,2688,3606,-2764,-4174,49,-263,-2781
1908,23074,1961,2690,1884,2584,-5514,39,297,-5174
1909,23133,2179,2690,220,1912,-6602,-93,-88,-3650
1910,23133,2045,2691,1158,388,-2340,433,-859,-4269
1911,23145,2062,2689,2922,-1632,-4476,440,163,-4334
1912,23145,2062,2689,3056,-714,-8060,249,532,-4652
1913,23098,2003,2691,2122,-1480,-2724,152,420,-2569
1914,23086,1992,2689,2778,658,-6454,466,-72,-4310
1915,23086,2103,2690,1406,-1886,-5178,333,-313,-3886
1916,23062,2106,2691,1512,-120,-682,436,144,-4467
1917,23062,2056,2691,806,-1454,-2278,785,-443,-3936
1918,23062,2088,2689,2980,1122,-5788,-193,1230,-4419
1919,23062,2055,2689,2310,-442,-1486,-110,32,-4352
1920,23062,2105,2690,664,-2956,-3234,152,531,-4611
1921,23074,2085,2689,4360,-926,-9684,342,214,-4582
1922,23074,2066,2690,1884,-1520,-3794,591,-1159,-4222
1923,23086,2095,2690,1594,-1328,-314,-532,-218,-1628
1924,23086,1999,2688,1930,1578,-726,-154,-1288,-3806
1925,23098,2121,2690,-1936,804,-2074,-122,-793,-3235
1926,23086,1907,2688,2426,-1510,-3284,114,716,-4720
1927,23086,2122,2688,2792,-1484,-3438,16,-1705,-912
1928,23086,1874,2690,1908,1098,-6046,4,433,-4504
1929,23086,2119,2690,662,-1680,-3212,204,-123,-4747
1930,23074,1858,2691,298,1458,-3858,-522,-186,-5259
1931,23074,2101,2690,2434,20,-1932,-274,477,-4042
1932,23074,1885,2688,1832,2190,-6384,226,426,-4579
1933,23074,2028,2690,1556,-940,-1558,878,-85,-6447
1934,23074,1969,2689,1016,640,-2836,190,-54,-5475
1935,23014,2053,2690,1432,-2152,-4722,20,-624,-3889
1936,23014,1966,2690,2086,-2,-3566,20,23,-6085
1937,22954,2076,2691,282,2,-300,378,55,-4210
1938,22954,1994,2688,2916,-326,-7140,326,461,-4449
1939,22858,2020,2689,2040,314,-3048,-42,874,-8298
1940,22870,1935,2691,2388,-400,-6314,472,62,-6034
1941,22870,2026,2690,2042,384,-5028,65,236,-5250
1942,22799,2003,2691,1366,304,-3844,-6,-221,-4451
1943,22799,2081,2691,1688,-1146,-3102,-3,-358,-4181
1944,22703,1830,2689,1768,-1124,-2638,672,566,-7449
1945,22679,2214,2691,1298,116,-2368,-280,-56,-4593
1946,22679,1832,2690,124,760,-3754,142,-342,-5277
1947,22667,2003,2690,426,1372,-4250,42,649,-5448
1948,22667,2044,2691,160,1718,-4098,152,-54,-6721
1949,22631,2058,2689,1096,2052,-4154,-300,588,-3096
1950,22631,2062,2689,3964,154,-5606,-45,379,-4092
1951,22619,2091,2691,2004,-1180,-6466,7,-520,-4812
1952,22619,2034,2690,1676,-892,-2242,258,-263,-5259
1953,22619,2122,2689,2274,2164,-5890,-61,-345,-5027
1954,22571,2071,2690,2902,1460,-9082,-39,-326,-4092
1955,22571,2070,2689,2064,1688,-3248,743,1065,-7880
1956,22488,2092,2689,1206,1468,-5922,58,83,-5024
1957,22488,2000,2689,2690,-1492,-3168,375,-253,-6022
1958,22141,2077,2689,1354,-2462,-3606,565,-720,-5448
1959,21567,2152,2691,2618,-1374,-3406,139,-53,-4490
1960,21567,2001,2690,2544,-1366,-2266,-216,-257,-4971
1961,20168,2102,2689,-1728,-950,680,81,-355,-5973
1962,20168,1973,2690,272,1780,-2722,7,277,-4835
1963,18255,2049,2688,1764,-1364,-2656,42,-349,-5292
1964,18255,2059,2689,-206,-1008,-5114,-26,-399,-3353
1965,17107,2106,2689,2296,156,-4774,-465,-990,1546
1966,17035,1974,2688,-2108,888,-5816,-397,-622,-980
1967,17035,2134,2689,-104,-1416,-2058,2318,337,-5784
1968,17119,1958,2688,1126,-1140,-2630,152,420,-2483
1969,17119,2112,2689,792,-1394,-4428,120,788,-1873
1970,17047,1995,2690,584,-980,-672,191,-190,-1413
1971,17047,2033,2693,-1050,1444,-4702,155,-412,-1723
1972,17035,2031,2689,664,458,-1580,133,395,-1281
1973,17035,2081,2691,208,-176,-1982,510,-536,-1684
1974,17035,2064,2692,2514,2030,-8106,200,-447,-1245
1975,17035,2105,2688,1896,-266,-7618,-148,157,-773
1976,17035,2074,2690,204,422,-3382,223,-158,-771
1977,17035,2086,2688,268,972,-3032,404,-184,-1310
1978,17035,2038,2689,-902,570,-2978,-129,305,-1133
1979,17035,2100,2689,2854,-1476,-4102,1033,642,-2073
1980,17047,2076,2689,-44,324,-3876,27,52,-1159
1981,17047,2091,2690,554,-16,-3986,175,-79,-332
1982,16976,1994,2690,1018,-2116,-3644,440,-126,-1619
1983,16976,2237,2690,1052,-2180,-5498,133,-289,-152
1984,16904,2095,2690,-828,442,210,-297,207,-1413
1985,16402,1898,2688,-52,928,-3122,159,246,-1115
1986,16402,2022,2689,138,1202,-4642,459,363,-1139
1987,15720,2272,2690,2120,-310,-8568,65,315,-535
1988,15720,1978,2690,-420,-80,-3358,-32,386,-593
1989,14919,2069,2688,1450,224,-2614,-103,-1051,-1363
1990,14919,2151,2691,-1722,232,-3286,-339,-762,190
1991,13950,2286,2690,-556,1434,-7798,-97,92,906
1992,13245,2029,2687,-1916,-1590,-2760,-232,-599,1558
1993,13245,2042,2687,2852,-1238,-8912,55,-320,3644
1994,12683,2132,2691,-2800,-1890,-6522,-710,293,721
1995,12683,2029,2688,-208,-398,-3564,481,210,744
1996,12241,1965,2687,-3370,282,-1364,42,83,2707
1997,12241,2301,2689,2004,598,-2940,-287,-1069,3368
1998,11870,2002,2690,-1964,-284,-5332,284,201,2539
1999,11691,2238,2690,-1906,54,-5428,420,421,3117
2000,11691,1735,2688,-2696,-444,-5672,-93,-806,3361
2001,11619,2315,2688,-2388,-912,-4704,-190,417,4331
2002,11619,1755,2690,-2540,576,-2638,-248,-240,2504
2003,11451,2311,2688,-2884,2108,-3064,-319,-180,5051
2004,11451,1974,2688,-1778,926,-3118,162,179,4408
2005,11380,2202,2691,-2234,1144,-3702,701,296,3388
2006,11320,1900,2689,-2398,-1418,-3962,-197,601,3311
2007,11320,2226,2689,-1826,-1948,-6614,-416,1194,5029
2008,11392,1974,2686,-2658,-714,-1644,22,1086,4570
2009,11392,2069,2688,-3254,2314,-1470,-64,-225,5047
2010,11511,2202,2690,-2974,-414,-2786,210,-88,3780
2011,11631,2079,2691,-66,-1534,-5344,530,-853,3653
2012,11631,2120,2689,-3536,642,-3262,-212,154,5115
2013,11738,2113,2689,-2514,-1850,-4038,-510,-495,4263
2014,11738,2065,2688,-1456,78,-2612,-439,-155,5592
2015,11930,2145,2689,-2202,-372,-3190,-323,35,5472
2016,11930,2151,2690,-1578,-2050,-5362,375,563,4959
2017,12265,2012,2689,-2190,-994,-3996,-300,-177,6571
2018,12683,2131,2690,-1938,-488,-5592,-3,665,5154
2019,12683,2068,2688,-1068,-706,-2958,-229,239,5669
2020,13018,2095,2690,-1768,1464,-4122,-271,359,6064
2021,13018,2073,2689,-1902,1382,-4576,-361,-269,4493
2022,13508,2096,2692,-884,-340,-3530,282,-91,4794
2023,13508,2069,2690,270,714,-6180,-181,-352,4764
2024,13783,2153,2688,-826,-1176,-4528,3,115,4802
2025,13496,2179,2689,-1848,1476,-2814,-190,-640,4264
2026,13496,2149,2689,1550,622,-5224,-658,42,3232
2027,13030,1987,2689,-2392,-34,-3766,-158,160,3544
2028,13030,2130,2689,1470,3538,-5616,417,303,2006
2029,12719,2239,2689,-152,-1270,-3484,407,1062,2389
2030,12719,2170,2689,-1116,-2200,-1876,449,334,2563
2031,12611,2160,2690,-1830,-412,-3408,307,-971,2680
2032,12480,2331,2689,-3058,968,-2724,-161,376,2946
2033,12480,1945,2689,-34,-1186,-5444,449,30,2501
2034,12468,2266,2690,-128,-970,-2836,-68,274,992
2035,12468,2002,2689,-1284,-144,686,459,163,2106
2036,12468,2118,2690,-842,1308,-2666,784,-689,2589
2037,12492,2128,2690,-400,-914,-6610,420,-225,2374
2038,12492,2116,2690,-1482,-1864,-8646,71,633,2389
2039,12480,2181,2688,-684,-1020,-6476,-459,-432,2230
2040,12480,2087,2689,90,-2306,-3252,71,-181,1419
2041,12587,2288,2690,-1360,-1948,1352,-103,249,2309
2042,12587,2172,2692,830,2416,-2532,375,-275,3111
2043,12599,2249,2690,-2038,1688,-1818,300,-225,3108
2044,12587,2134,2688,-1390,-2090,-5524,133,386,3315
2045,12587,2121,2689,-986,-820,-5020,-1242,-824,4494
2046,12587,1983,2689,-2014,1634,-4306,-407,-695,3936
2047,12587,2247,2688,-780,1138,-3418,-122,240,4653
2048,12492,2035,2690,-1154,-1422,-2046,365,-120,3615
2049,12492,2207,2689,-2158,272,-9810,-145,773,4001
2050,12384,2217,2690,-3254,-436,-2434,898,706,2677
2051,12265,2290,2691,-1934,1544,-5314,-855,-269,3576
2052,12265,1989,2689,-1182,-1912,-3554,-500,-317,4101
2053,12241,2192,2691,-2876,1448,-4692,-407,451,5115
2054,12241,2342,2690,-1000,1902,-3246,-97,200,3668
2055,12241,2177,2690,-832,-764,-6186,188,-288,3553
2056,12241,2181,2691,-2372,-1524,-3324,-181,-606,7897
2057,12276,2170,2688,-746,3336,-3162,171,-818,3344
2058,12265,2296,2688,-1402,-1252,-2044,-371,-142,3698
2059,12265,2274,2689,-1568,1220,-238,575,709,3450
2060,12276,2231,2691,-780,1196,-2438,798,480,3756
2061,12276,2338,2689,-3410,674,-2746,681,-495,3243
2062,12241,2484,2690,-2454,6,-9276,-1004,277,5917
2063,12241,2102,2690,-3278,1838,-2396,-338,-335,4022
2064,12229,2240,2688,-2828,-1754,-2274,32,191,3765
2065,12217,2360,2692,-212,388,-2390,378,804,3856
2066,12217,2242,2690,-364,-2310,-3178,449,-784,4019
2067,12217,2129,2690,-1116,-1002,-2912,-390,23,8805
2068,12217,2449,2689,150,-2860,-4830,249,-561,4334
2069,12217,2075,2691,-3412,580,-2434,284,-1085,4581
2070,12229,2255,2690,-2554,774,-2048,375,185,4184
2071,12229,2408,2688,2038,690,-8442,446,1195,3765
2072,12229,2042,2688,-3598,-776,192,207,-621,3624
2073,12229,2229,2690,-1272,-2096,-6408,204,865,5103
2074,12217,2368,2689,-2396,-1420,-2604,-358,-812,3252
2075,12217,2208,2689,-954,-2166,-6828,-420,-962,3214
2076,12217,2208,2689,-880,-2520,-2056,-181,-650,1882
2077,12336,2113,2690,-1690,-796,-4386,-87,-73,2798
2078,12336,2166,2690,-452,980,-2802,68,1202,2575
2079,12480,2243,2689,-6,-1528,-4288,27,535,3359
2080,12480,2310,2689,-3110,-632,-3430,-48,-304,1979
2081,12695,2259,2690,-142,-1908,-8462,-135,541,2775
2082,12695,2203,2689,-790,-562,-7158,-216,-18,3547
2083,12791,2084,2690,-2146,-376,-5190,-378,827,3691
2084,12827,2208,2687,-1228,-848,846,-152,-733,3762
2085,12827,2055,2690,-414,-512,-1424,36,830,3532
2086,12850,2246,2689,2,1234,-4248,-41,-319,4125
2087,12850,2329,2689,-1742,-916,-2540,-329,-930,4198
2088,12862,2174,2690,-1790,-1666,-5252,65,-774,3011
2089,12862,2146,2691,-2640,-1928,-3436,-487,-469,3583
2090,12862,2175,2689,-582,-546,-1984,88,-1244,4526
2091,12898,2282,2690,-1494,-2078,-5510,362,156,3694
2092,12898,2280,2692,-2808,80,-752,581,23,4234
2093,13078,2198,2690,328,-1510,-4170,733,-511,3131
2094,13078,2235,2688,-3312,-980,-2758,-152,820,4726
2095,13520,2470,2689,-2482,52,-628,-241,405,5053
2096,14106,1945,2689,-2100,-768,-4858,-290,1258,3927
2097,14106,2263,2691,-3524,2788,-2740,-99,180,3073
2098,15003,2255,2691,-1084,-268,-2374,301,449,3347
2099,15003,2122,2690,-752,-214,-2612,-319,-431,3701
2100,15720,2263,2688,-744,2030,-6280,-1268,-100,6117
2101,15720,2201,2692,-622,1882,-3082,-206,-152,2409
2102,16414,2186,2690,1940,-776,-3532,-68,489,2383
2103,17000,2193,2690,1032,116,-4702,-45,-164,1081
2104,17000,2182,2691,-1800,646,-3800,-110,19,184
2105,17047,2165,2690,1774,-150,-5570,188,776,76
2106,17047,2087,2690,208,796,-3124,-187,-50,352
2107,17143,2245,2690,-572,-1376,34,123,-389,359
2108,17143,1888,2690,-358,-598,-3276,233,78,-199
2109,17155,1958,2689,-454,580,-4168,10,103,-137
2110,17251,2090,2689,-522,-652,-2926,-203,160,46
2111,17251,1877,2690,458,254,-4436,-135,11,-33
2112,17358,2002,2687,-1328,1260,-3192,-823,-228,5751
2113,17358,1841,2689,706,330,-3648,120,-228,467
2114,17346,1992,2690,754,-1682,-3822,246,223,140
2115,17346,1941,2689,-916,-568,-4222,-77,407,-305
2116,17131,2014,2690,-1002,-1466,-3010,-81,214,-231
2117,17035,1869,2688,-1622,458,-3332,-58,-187,-836
2118,17035,1990,2688,-1548,-30,-3934,236,109,-682
2119,16964,1905,2691,-756,-100,-4714,3,-501,782
2120,16964,2035,2690,-1314,660,-2514,-132,-34,193
2121,16760,2015,2688,-834,394,-1124,-174,154,-496
2122,16270,1894,2689,164,616,-3192,-255,-263,143
2123,16270,2009,2689,1690,244,-2550,-42,-171,-137
2124,15720,2150,2691,-316,236,-3016,-29,131,273
2125,15720,1924,2688,2334,-1188,-4306,-955,-549,3420
2126,15062,1910,2691,172,-1194,-3304,-28,-205,64
2127,15062,2093,2689,-2300,2436,-2520,-254,-789,1140
2128,14417,2189,2689,1232,116,-4482,-517,-212,1283
2129,13891,2008,2689,-370,-2346,-4230,-342,68,1275
2130,13891,2223,2688,1506,412,-2622,-303,83,1443
2131,13508,1908,2689,-2064,-1108,-244,323,-161,-13
2132,13508,2134,2689,-2208,-438,-3896,-148,106,1422
2133,12898,1981,2689,-380,-1138,-5048,-68,-238,2100
2134,12898,1963,2688,-2752,1710,-3486,-103,367,2551
2135,12396,1978,2687,-4332,1252,-2706,-129,827,2347
2136,11978,2075,2688,-398,1166,-4224,81,395,2683
2137,11978,2071,2691,-2374,-1492,-4940,424,668,1829
2138,11726,1993,2689,-1586,612,-4490,-3,-784,2804
2139,11726,1980,2689,-4190,-776,-4076,-484,-126,3072
2140,11631,1991,2689,-2414,824,-1562,45,102,3942
2141,11631,1973,2688,-3044,-874,-322,198,-2,3356
2142,11320,1958,2688,-3000,814,-1894,197,-158,2934
2143,10985,2165,2690,-1736,4154,-5538,-139,-936,3435
2144,10985,1972,2689,1010,-1034,-7400,-194,-60,3830
2145,10674,2093,2691,22,654,-5730,3,-558,2672
2146,10674,2062,2689,-3378,684,-3458,39,176,2725
2147,10500,2033,2689,-2250,-1460,-1596,-57,-523,3774
2148,10500,2038,2687,-2946,-890,-4150,-39,-1073,4773
2149,10500,2117,2689,-1550,2294,-4316,-54,157,3303
2150,10500,2191,2689,-1662,-1502,-3528,-280,-557,4373
2151,10500,1953,2689,-2972,-1438,-4110,145,779,3482
2152,10500,2175,2688,-2318,-1088,-3810,-109,-15,2917
2153,10500,2077,2688,-2414,1442,-7120,336,-196,5009
2154,10500,2143,2688,-664,2046,-3414,-174,-323,4564
2155,10500,2106,2689,-464,-22,-4320,672,306,3644
2156,10500,2079,2689,-750,-488,-6824,501,-66,4584
2157,10500,2026,2689,-1958,980,-5476,133,11,4809
2158,10500,2132,2690,-1858,-1466,-2744,617,-383,4381
2159,10500,2064,2690,-1682,466,-3178,284,-815,6052
2160,10500,2165,2689,-1096,-600,-3898,991,-672,-812
2161,10500,2051,2690,-1556,-2592,-3348,446,264,5418
2162,10500,2072,2692,-2020,-2882,-2258,427,-453,4523
2163,10500,2058,2690,-3776,-492,-4698,-458,414,6000
2164,10500,2134,2690,-1688,-2356,-4874,753,93,6645
2165,10500,2065,2689,-784,756,-2010,-277,792,6168
2166,10500,2126,2690,-736,-330,-898,149,-453,4835
2167,10500,1964,2690,-554,698,-4860,572,468,5127
2168,10500,2058,2691,-1204,1774,-5696,152,-913,5118
2169,10500,1979,2690,-3106,1336,-4248,104,-336,5763
2170,10500,2037,2688,-1566,-982,-3544,-229,567,5127
2171,10500,2038,2688,-546,1102,-6376,58,67,4956
2172,10500,2100,2689,-892,-356,-4264,98,-259,4529
2173,10531,2125,2690,-1418,2136,-4378,265,-542,4131
2174,10531,2143,2689,-1876,2458,-3160,433,-1304,5410
2175,10698,2069,2689,-740,728,-5536,443,170,4956
2176,10961,2100,2689,-1840,-584,-6218,-367,-157,3600
2177,10961,2067,2689,-4784,-880,-3686,-890,535,4744
2178,11643,2132,2690,-2416,-210,-3924,320,529,4617
2179,11643,2194,2690,-1200,184,-6092,324,-281,5336
2180,12444,2329,2690,1036,-62,-13636,1150,1573,4443
2181,13640,1894,2691,908,498,-2034,553,1272,4455
2182,13640,2110,2689,-1492,-1002,-5024,565,-333,3075
2183,14811,2164,2689,-234,832,-4652,385,1313,4370
2184,14811,2310,2690,1790,-824,-4984,33,-272,3312
2185,14811,1983,2690,580,-580,-5640,-271,325,3058
2186,14811,2084,2690,1322,-554,-3872,375,137,3824
2187,16461,2204,2692,-4484,2782,-5904,217,258,1054
2188,16964,2075,2691,-2066,16,706,336,513,1862
2189,16964,2204,2689,1860,-1952,-5694,-97,52,1263
2190,16964,2080,2691,320,-952,-5962,139,531,2580
2191,16964,2051,2693,140,-452,-2852,911,1236,-3957
2192,16976,1882,2691,-454,-576,-2266,-128,-510,2236
2193,16976,2284,2689,-1600,316,-2596,-22,-599,261
2194,17000,1874,2690,1218,-200,-3520,-354,87,347
2195,16988,2134,2688,1118,-1860,-4278,-310,731,178
2196,16988,2070,2689,-42,24,482,427,59,-281
2197,16988,1960,2689,-428,-330,-4616,439,-841,196
2198,16988,2117,2690,-646,1226,-4910,-90,188,122
2199,16988,2161,2689,-618,1790,-5382,-545,150,302
2200,16988,2079,2689,-248,-580,-4470,-367,1033,356
2201,16964,2084,2689,-488,-2088,-2868,116,127,264
2202,16964,2024,2691,-224,-322,-4204,430,455,-175
2203,16964,2150,2693,-600,-494,-6612,837,446,-1342
2204,16964,2017,2690,-494,-1854,612,430,167,535
2205,16964,2116,2690,580,2316,-2674,-510,29,146
2206,17000,2134,2691,1784,-926,-4454,-209,-234,-632
2207,17000,2107,2689,826,318,-6178,-196,903,1175
2208,17000,2023,2689,1382,-1110,-3066,52,652,-432
2209,17000,2015,2690,560,-826,-7152,359,147,-3420
2210,17000,2036,2691,-292,-214,-3550,375,-187,-609
2211,17011,1970,2691,842,-1108,-956,-16,-180,385
2212,17011,2076,2689,-934,1706,-5154,-429,661,526
2213,17047,2190,2689,-620,472,-3192,-303,-640,-440
2214,17131,1988,2691,-192,1042,-3054,-26,-139,-28
2215,17131,2068,2688,800,296,-5312,362,-212,-155
2216,17346,2088,2690,904,1056,-5422,123,-346,-55
2217,17346,2058,2691,244,528,-4860,-87,-91,214
2218,18088,2121,2689,10,-658,-2030,223,181,-332
2219,18088,2069,2688,1452,-1390,-2256,-141,1427,-1522
2220,18793,1949,2689,-416,72,-2912,-271,169,-2050
2221,19259,2113,2691,1560,-32,-5452,65,471,-1130
2222,19259,1985,2690,940,26,-2912,123,-88,-1142
2223,19666,2120,2691,820,1236,-4856,394,255,-844
2224,19666,2089,2691,2442,-1926,-5058,297,258,-1637
2225,19917,2044,2689,-390,86,-1254,404,334,-4166
2226,19917,1998,2690,3062,-1660,-4494,-197,303,-2153
2227,20060,2085,2690,1254,778,-8164,-930,-180,594
2228,20072,1952,2691,90,-160,-1252,-38,255,-2545
2229,20072,2109,2689,2116,-1634,-4468,352,-637,-3323
2230,20025,1978,2689,-458,526,-2244,-87,-412,-3158
2231,20025,1999,2689,990,94,-2606,-132,-120,-2619
2232,19785,2050,2690,1826,-676,-1592,455,-221,-3414
2233,19785,2064,2690,1112,-120,-3312,-390,-348,-2082
2234,19558,1995,2689,2178,-486,-2860,-223,61,-2813
2235,19247,1876,2691,1216,1050,-4662,359,45,-3364
2236,19247,2056,2689,664,-978,-3820,692,-56,-2624
2237,19020,2101,2689,1476,-1210,-5594,-297,-59,-3311
2238,19020,2056,2689,576,-44,-4748,579,436,-1761
2239,18602,2024,2688,1698,-566,-3640,-390,366,-1278
2240,17980,2048,2689,-650,-626,-716,-187,554,-2209
2241,17980,1977,2690,74,138,-3210,-58,274,-1802
2242,17155,2013,2689,454,1086,-3726,74,-114,-1593
2243,17155,2100,2690,558,140,-3242,220,249,-2014
2244,17035,1975,2691,-538,1212,-2822,659,-914,-2392
2245,17035,2090,2690,-704,-1326,-5106,488,-1475,-1940
2246,17035,1974,2691,-1266,-1934,-4808,-329,-246,-316
2247,17047,2054,2690,1150,-658,-6554,33,-396,-190
2248,17047,1986,2688,-444,160,-4994,268,213,-202
2249,17035,2055,2688,210,-1312,-2326,81,65,-493
2250,17035,2015,2691,-686,-1000,-3668,-32,385,-273
2251,17047,2040,2689,248,-558,-3122,-293,-183,1178
2252,17047,1974,2690,226,306,-5416,-520,293,558
2253,17047,2041,2691,-48,-1762,-2118,-116,586,-1224
2254,17035,1964,2690,1522,424,-6096,175,78,-782
2255,17035,1990,2691,-1128,50,-2252,-6,49,-661
2256,17035,2031,2692,1152,-1112,-3372,-19,1087,-909
2257,17035,1964,2689,-1028,2100,-4224,-70,-516,-620
2258,17035,2081,2689,-132,378,-6386,-181,325,-249
2259,17035,1941,2690,-160,-56,-3704,317,141,-597
2260,17035,2165,2689,738,-1006,-5454,-9,360,-954
2261,17035,2192,2689,1380,-858,-3188,-6,-462,-367
2262,17035,2088,2690,410,936,-4586,-25,-240,-779
2263,17035,2175,2689,680,2664,-7434,-57,36,-591
2264,17035,2116,2690,834,2010,-6062,-158,-495,-2825
2265,17047,2143,2691,1514,-1054,-5222,194,-533,-1410
2266,17047,2138,2689,-22,-512,-2806,-513,-853,-1472
2267,17047,2246,2690,1300,-182,-3418,81,-1129,-369
2268,17035,2231,2691,-468,452,-6918,313,496,-1074
2269,17035,2529,2689,-1296,534,310,1056,23,-3373
2270,17035,2016,2690,2122,1270,-8386,453,-132,-652
2271,17035,2246,2689,-1160,4340,-4604,-784,-411,-720
2272,17035,2287,2689,2316,-2866,-1238,-55,239,-971
2273,16988,2319,2688,1016,3516,-1562,-116,1,-826
2274,16988,2344,2690,-150,-392,-1914,217,-815,-874
2275,16976,2152,2690,984,1468,-6634,307,376,-841
2276,16976,2515,2692,1566,354,-2366,-45,439,906
2277,16976,2411,2689,838,-112,-8096,-287,-120,-1186
2278,16976,2351,2689,-1038,1952,-3032,-199,-323,-647
2279,16976,2199,2689,1268,-586,-2094,479,93,-865
2280,16892,2585,2689,-1140,-1424,-1528,727,-532,-87
2281,16892,2238,2688,46,2338,-4126,307,-269,356
2282,16748,2504,2689,2722,494,-6480,-194,-25,-588
2283,16748,2550,2688,42,-676,-3902,-477,402,-785
2284,16414,2467,2688,2610,-994,-2906,-265,-691,-653
2285,16414,2494,2689,-480,-900,-2542,20,-589,303
2286,16055,2559,2688,-678,2156,-6292,7,-28,-641
2287,15684,2551,2689,-594,218,-2278,-116,30,963
2288,15684,2451,2689,-114,-2340,-2746,-319,195,-16
2289,15122,2459,2688,2244,-950,-7246,294,1,-1484
2290,15122,2518,2688,298,308,-3234,259,-78,235
2291,14919,2783,2689,-1388,692,-2242,860,243,-4269
2292,14919,2276,2689,1076,822,-8560,-64,-1383,294
2293,14572,2517,2690,-2288,294,-5410,-145,-253,1876
2294,14465,2583,2689,118,-962,-3112,-251,-700,79
2295,14465,2343,2687,-1294,-1178,-4614,-45,-1073,311
2296,14309,2506,2689,-4038,1378,-1638,-704,353,-989
2297,14309,2510,2690,-1978,-318,-5476,-407,172,2445
2298,14190,2457,2689,-1192,2098,-5980,-1113,986,4275
2299,14070,2653,2689,2688,-178,-1308,-57,367,789
2300,14070,2239,2690,-3014,802,250,101,-681,1399
2301,13819,2598,2689,-26,660,-1390,-235,-993,2595
2302,13819,2685,2690,-3730,1066,-2984,-84,-485,1634
2303,13675,2447,2691,-892,1004,-4020,-429,-40,3250
2304,13675,2638,2690,-1714,562,-5598,-77,-834,5993
2305,13508,2605,2689,-2702,-668,-5870,-354,459,1982
2306,13257,2525,2690,862,1834,-5682,-358,198,1328
2307,13257,2594,2691,-932,-642,-3898,-161,274,1994
2308,13257,2627,2691,646,-2406,158,307,-50,2059
2309,13245,2590,2690,-424,1504,-5588,-658,-1114,2512
2310,12922,2597,2690,-1558,1844,-7616,-307,210,1089
2311,12922,2604,2689,-3174,1574,-3290,87,-831,1855
2312,12838,2864,2689,-3574,580,-5908,98,1011,3262
2313,12779,2316,2690,296,904,-6426,666,128,2495
2314,12779,2662,2688,-2724,-368,-6466,229,-35,1407
2315,12695,2901,2689,-1166,596,-1888,20,337,1823
2316,12695,2237,2688,-3338,4082,-6248,-581,166,2380
2317,12695,2674,2689,-5684,1598,-2596,-858,163,5292
2318,12695,2672,2689,-3122,812,1362,456,-5,4883
2319,12468,2357,2689,-2874,1582,-3952,359,-1101,2861
2320,12276,2883,2690,-2452,-1072,-4180,88,-164,2318
2321,12276,2565,2689,-2838,1358,-3804,-319,-723,4582
2322,12133,2402,2688,-2718,3502,-5592,-216,903,3217
2323,12133,2948,2688,-1776,-194,-2702,-623,-305,-620
2324,12025,2286,2691,-1600,2,-7398,307,-342,3724
2325,12025,2716,2689,-1408,4422,-5498,-280,97,3736
2326,11894,3000,2688,-1438,812,-3950,-25,-154,3595
2327,11870,2552,2690,690,-3288,-862,-138,1237,3795
2328,11870,2723,2688,-1546,496,-5210,378,-193,3712
2329,11882,2669,2690,-264,-1716,-5326,-1304,462,5257
2330,11882,2751,2690,18,-2048,-3876,382,-558,4641
2331,11870,2727,2688,-6776,2940,-5198,16,899,5843
2332,11882,3014,2689,-976,1706,-5158,294,84,5967
2333,11882,2555,2689,-2840,36,-5574,-361,-75,6376
2334,11894,2717,2688,-2394,-2880,-1474,371,769,3892
2335,11894,2950,2690,-1506,-826,-2572,129,433,4770
2336,11918,2289,2690,2496,-1426,-7568,623,1471,3859
2337,11918,2722,2688,-108,-2734,-3318,-84,642,5869
2338,11918,2721,2688,1032,-2860,-5098,39,99,3447
2339,11978,2709,2689,558,-2014,-7386,98,-948,5345
2340,11978,2655,2690,-1196,-1472,-5260,468,-104,4178
2341,12049,2600,2691,-1010,-2896,-1260,142,-787,1920
2342,12049,2626,2688,-2242,-2980,-760,-348,677,4549
2343,12229,2596,2686,-2372,-2652,-4310,265,-427,4146
2344,12229,2658,2689,-2690,1520,-5870,-77,99,5831
2345,12468,2805,2691,-3446,-998,-6220,-209,-307,5914
2346,12779,2585,2691,-1948,-3892,-6428,375,1265,5139
2347,12779,2683,2688,480,-1638,-1644,-580,5,5339
2348,13090,2522,2688,-620,-852,-5624,36,151,2613
2349,13090,2759,2691,-3044,-1252,-2532,145,280,1891
2350,13293,2684,2691,-5352,-64,-5028,-135,-380,2212
2351,13293,2608,2688,-1592,-1588,-4312,-397,-215,3945
2352,13508,2656,2688,-1670,698,-5442,-348,-634,4057
2353,13652,2587,2688,-3388,3988,-2804,145,-609,3326
2354,13652,2733,2692,-2762,2688,-3632,43,354,4104
2355,13903,2940,2689,-2386,4016,-4148,-181,562,4835
2356,13903,2469,2688,-1870,782,-2060,87,-339,5253
2357,14297,2679,2688,-2420,-54,270,-358,-326,6091
2358,14680,2908,2691,-2176,1508,-3496,217,-622,6326
2359,14680,2400,2690,-3980,490,-5164,307,-1209,4514
2360,14991,2549,2689,-3928,726,-2524,197,-164,2610
2361,14991,2588,2689,1638,-30,-2954,462,-552,6138
2362,14919,2605,2686,-646,3340,-3042,-77,1481,3795
2363,14919,2376,2690,-1086,26,-3322,533,693,2085
2364,14692,2800,2690,-1298,-1406,-7750,795,827,382
2365,14524,2574,2690,-1340,-2092,-5224,455,-796,3293
2366,14524,2597,2690,60,-318,-6168,-500,-786,-1501
2367,14321,2257,2688,2368,1036,-6832,230,-189,1935
2368,14321,2564,2688,788,170,-3842,-552,401,2418
2369,14082,2662,2690,-2340,428,1734,149,55,830
2370,14082,2625,2690,-1568,176,-7264,-242,290,2356
2371,13843,2621,2688,-2146,616,-7208,-665,-323,3730
2372,13843,2573,2690,-826,498,-3754,592,97,2268
2373,13831,2584,2689,-2352,2904,-4054,259,-849,2100
2374,13699,2615,2688,-1262,320,-882,426,201,2507
2375,13699,2506,2690,-2050,624,-3342,730,188,2073
2376,13795,2693,2689,-748,4042,-5782,-325,-1218,2150
2377,13795,2946,2690,-4170,3118,-3372,-484,-536,1814
2378,14022,2426,2690,-3998,924,-2846,88,-954,2581
2379,14405,2582,2689,-2626,1504,-7924,7,-212,1952
2380,14405,2659,2689,-314,3332,-5304,-1239,-1291,1449
2381,15062,2706,2688,102,-1080,-3600,304,1328,3579
2382,15062,2680,2688,326,-1388,-2100,156,986,2000
2383,15397,2988,2688,-238,-1230,-1698,-64,-75,2587
2384,15397,2465,2690,-770,-2230,-2030,614,-50,1911
2385,15947,2651,2689,2484,-2384,-3532,607,-1050,2445
2386,16318,2656,2689,-708,-2174,-2462,-361,-1240,2610
2387,16318,2548,2690,2126,-206,-614,336,-443,2542
2388,16497,2728,2688,882,-940,-5718,-533,137,1219
2389,16497,2732,2689,1398,-1476,-6902,-155,515,3084
2390,16414,2664,2691,-654,960,-7234,394,-1006,370
2391,16103,2687,2687,-1454,292,-3990,-170,440,1016
2392,16103,2656,2689,890,-980,-3516,381,341,166
2393,15756,2515,2690,-646,-2128,-5708,191,-481,1213
2394,15756,2669,2689,-980,-786,-2618,-420,-37,626
2395,15529,2711,2690,428,-408,-8932,-277,233,176
2396,15529,2611,2689,-892,-1886,-4924,-86,-443,341
2397,15230,2692,2689,-2682,-198,-5070,1085,1239,-2162
2398,15098,2675,2693,-392,-1250,-4434,1,-599,1514
2399,15098,2595,2690,-1238,-460,-5478,-3,5,1691
2400,15074,2612,2688,770,-1584,-1628,-86,367,1434
2401,15074,2657,2690,-1734,-12,-3464,-106,26,1242
2402,15051,2564,2691,-1606,-1128,-3026,68,30,1030
2403,15051,2562,2690,678,-1980,-3950,310,-383,594
2404,15051,2667,2690,632,-1634,-4858,-51,51,558
2405,15134,2624,2690,312,-1798,-3178,56,392,904
2406,15134,2586,2690,-1462,-1070,-3240,579,-608,924
2407,15242,2245,2690,-1104,1062,-1734,52,379,1081
2408,15242,2883,2689,-644,498,-3768,-513,299,1596
2409,15708,2528,2689,-1324,-2606,-3082,317,-129,1172
2410,15708,2663,2689,-1734,332,-5240,520,541,1572
2411,15852,2968,2689,-1434,884,-5134,-836,-310,856
2412,16210,2515,2691,-1496,-2412,-4612,223,442,3382
2413,16210,2520,2690,-218,-1542,-5800,220,137,2147
2414,16641,2655,2690,-528,1570,-6294,-368,277,1163
2415,16641,2731,2689,542,-1330,-5208,256,-627,833
2416,17000,2545,2690,2012,624,-5590,-423,176,2277
2417,17000,2744,2689,3222,-1854,-5298,-51,427,-95
2418,17000,2543,2690,1074,-2034,-4440,-210,-82,358
2419,17035,2706,2692,470,1652,-8442,449,630,337
2420,17035,2694,2691,460,-1062,-6346,527,-161,895
2421,17131,2659,2691,626,392,-6104,7,1176,494
