index,servo,motor,gimbal,acc_x,acc_y,acc_z,gyro_x,gyro_y,gyro_z
0,0,0,0,18,74,-3940,-13,175,102
1,17035,0,2690,-24,102,-3948,-62,203,-122
2,17047,0,2689,10,6,-3978,16,105,34
3,17035,0,2692,10,34,-3900,-10,28,-161
4,17035,0,2692,-18,104,-3942,32,216,-279
5,17035,0,2691,0,94,-3920,-36,130,-175
6,17035,0,2692,-14,28,-3856,80,58,-96
7,17047,0,2693,-30,116,-3898,-78,190,16
8,17047,0,2691,-2,108,-3930,-20,254,-28
9,17047,0,2691,50,76,-3940,-26,44,16
10,17035,1,2693,28,70,-3842,74,149,10
11,17035,0,2691,-40,24,-4004,48,-111,125
12,17047,0,2690,-8,-2,-3946,45,-13,252
13,17047,0,2690,-14,102,-3906,64,82,60
14,17035,0,2691,-4,132,-3896,-26,73,-332
15,17035,0,2691,4,4,-3932,-10,-104,-5
16,17047,-1,2691,46,48,-3900,-55,-92,582
17,17035,0,2690,34,162,-3906,35,298,284
18,17035,1,2691,64,34,-3956,48,-108,-7
19,17035,0,2691,26,68,-3954,35,3,-264
20,17035,-1,2692,38,86,-3994,22,143,-476
21,17047,1,2691,-52,148,-3918,-62,54,-146
22,17047,0,2690,-20,-30,-3958,19,-152,-84
23,17047,0,2692,-72,178,-3934,-97,19,-187
24,17035,0,2691,10,74,-4040,-68,137,28
25,17035,0,2689,-30,26,-4020,-62,127,208
26,17047,0,2692,2,110,-3962,58,101,87
27,17047,0,2690,-20,14,-3896,-120,251,1
28,17035,0,2690,10,24,-3990,6,251,-343
29,17035,0,2691,46,110,-3986,-23,175,-87
30,17047,0,2690,-10,202,-4004,16,-200,217
31,17035,0,2691,-2,80,-3906,-23,121,175
32,17035,0,2690,12,-38,-3932,-211,114,385
33,17035,1,2691,-8,46,-3944,216,0,-84
34,17035,1,2692,-8,26,-3970,93,131,107
35,17035,0,2691,10,112,-4064,110,188,-435
36,17035,0,2691,-54,-50,-3844,-49,-28,28
37,17047,0,2689,38,36,-4052,-36,318,125
38,17035,0,2691,-34,166,-3896,-36,-105,482
39,17035,0,2690,-22,116,-3950,77,-19,-276
40,17035,-1,2691,94,-62,-3910,-4,7,-149
41,17035,1,2689,-54,124,-3986,-10,-168,-119
42,17035,0,2690,-20,178,-3868,6,-70,-202
43,17047,0,2692,-34,8,-3926,32,156,-320
44,17047,0,2690,80,-8,-4040,77,35,-411
45,17047,0,2692,-58,104,-3994,-81,-12,-52
46,17047,0,2691,22,72,-3920,-26,89,-69
47,17035,0,2692,-14,26,-3916,-55,-32,-93
48,17035,0,2691,44,-34,-4008,3,-41,49
49,17035,0,2691,2,150,-3934,64,28,105
50,17035,0,2692,28,10,-3874,12,-201,-223
51,17035,0,2691,8,140,-3974,55,-47,-37
52,17035,0,2691,16,102,-3990,-29,-54,-31
53,17035,0,2692,34,48,-4034,-20,124,205
54,17047,0,2691,-66,12,-3854,-194,-127,155
55,17047,0,2691,46,26,-4020,-16,-64,25
56,17035,0,2692,-34,76,-3880,55,57,-119
57,17047,0,2691,-32,132,-3882,6,-92,28
58,17047,0,2692,22,102,-3970,103,-102,-361
59,17047,0,2692,-22,40,-3910,-30,288,-249
60,17047,0,2690,-66,86,-4022,-188,16,-202
61,17047,0,2691,40,64,-3950,-20,-118,249
62,17047,0,2691,34,2,-3930,-133,0,54
63,17047,0,2691,-16,234,-3986,6,60,-78
64,17047,0,2691,52,-24,-3950,64,-229,4
65,17047,0,2691,8,-10,-3890,-7,143,69
66,17047,0,2689,22,34,-4036,-46,-127,-105
67,17047,0,2692,-108,184,-3958,29,-282,10
68,17047,1,2690,60,-8,-3976,3,133,-46
69,17035,0,2690,-66,148,-3880,-65,70,-317
70,17035,0,2691,-56,74,-3960,-55,98,10
71,17035,0,2691,-28,8,-3900,71,-362,-75
72,17035,1,2691,-34,114,-3960,-52,372,-114
73,17047,0,2690,12,-26,-3924,65,-183,22
74,17047,0,2690,-8,94,-3962,77,26,-149
75,17047,0,2691,6,104,-3992,29,-324,-155
76,17047,0,2691,26,90,-3962,-42,-158,31
77,17047,1,2691,14,102,-4004,-117,19,46
78,17047,0,2691,2,50,-3888,-16,-59,75
79,17047,0,2690,26,66,-3950,100,-127,90
80,17035,0,2690,-54,54,-4040,45,155,25
81,17035,0,2691,-30,132,-3914,87,414,-173
82,17047,0,2692,-36,-112,-3214,22,-438,125
83,17047,55,2691,64,592,-3904,-129,19,57
84,17047,161,2692,-526,1402,-3118,-26,95,-31
85,17047,178,2690,206,1834,-4436,-94,130,72
86,17047,163,2692,-148,1376,-3898,-81,-130,-66
87,17047,147,2691,-48,1834,-4342,187,4,217
88,17047,299,2692,630,1224,-4336,155,38,166
89,17047,319,2691,-36,1480,-3854,-97,60,-66
90,17047,234,2691,-132,1772,-2656,-155,-193,-302
91,17047,369,2691,-14,840,-4458,119,16,-264
92,17035,291,2691,88,2078,-3636,139,98,22
93,17035,388,2691,260,454,-3762,26,140,-75
94,17047,351,2690,162,120,-3954,16,181,119
95,17047,394,2690,662,68,-4292,151,242,163
96,17047,-49,2691,100,-730,-3262,-19,112,246
97,17047,-227,2690,766,382,-3824,32,28,570
98,17047,-68,2692,112,-950,-3708,45,-6,155
99,17035,-25,2690,42,-1146,-3582,219,-60,-16
100,17035,11,2691,146,-1326,-3996,306,7,28
101,17035,162,2691,256,-1120,-4238,109,-242,-119
102,17035,267,2690,-88,-354,-4478,-165,-89,131
103,17035,281,2691,-54,-844,-3486,-220,-483,-28
104,17035,244,2690,-72,-916,-3910,-129,136,-173
105,17035,214,2690,-36,-414,-4184,26,-57,-178
106,17047,199,2692,-62,-764,-3950,-36,146,-231
107,17047,149,2692,-50,-616,-3852,7,7,-84
108,17047,138,2690,-36,-638,-3768,38,32,-164
109,17035,110,2691,60,-602,-3984,126,-315,-367
110,17035,93,2690,18,-472,-4014,45,73,-46
111,17035,77,2690,-42,-430,-4082,-68,44,37
112,17035,51,2691,-20,-298,-3874,13,-95,535
113,17047,45,2689,-100,-32,-3892,126,117,99
114,17047,40,2691,14,-254,-4038,16,61,-25
115,17047,32,2691,382,-464,-3662,106,-95,-117
116,17035,103,2692,-26,-284,-3824,13,-16,-105
117,17035,233,2692,124,-442,-4050,13,16,367
118,17047,281,2691,-142,342,-4222,-39,61,72
119,17047,540,2692,-114,-348,-4100,80,-426,181
120,17047,505,2692,-138,1240,-3996,-191,169,-78
121,17047,485,2691,216,2340,-4614,-426,51,-240
122,17047,314,2692,-792,3606,-3674,-449,296,-161
123,17047,305,2691,-460,2712,-2632,-291,-369,-117
124,17047,413,2690,-2,5456,-5648,-104,168,-75
125,17047,349,2692,658,-30,-2874,439,-213,-81
126,17047,571,2691,-148,3142,-2512,306,-86,-96
127,17035,494,2692,-390,790,-3884,135,-64,-128
128,17035,639,2690,232,1808,-2962,-120,464,821
129,17035,584,2690,22,1150,-3960,26,-276,-140
130,17047,630,2691,-1314,2414,-3366,-36,105,-58
131,17047,717,2691,-212,330,-3600,-149,-226,31
132,17035,686,2690,676,-604,-3608,-4,89,-105
133,17035,732,2690,-136,1586,-3614,29,-60,75
134,17047,735,2691,-196,-220,-3672,84,318,-175
135,17047,804,2691,-156,230,-4806,274,-327,-320
136,17047,647,2691,144,842,-5426,-22,134,-199
137,17035,741,2691,148,-70,-3742,26,-10,-237
138,17035,687,2692,-212,-10,-3466,61,6,-137
139,17047,680,2691,414,-606,-3178,6,-143,-178
140,17047,634,2690,458,96,-4562,119,3,-161
141,17047,614,2691,18,-1570,-4658,210,-89,-96
142,17047,602,2691,952,1264,-4260,-104,149,-37
143,17047,720,2691,214,-878,-3304,116,70,-276
144,17047,598,2691,144,-8,-3220,210,-432,-276
145,17047,585,2692,-214,62,-3762,252,29,-382
146,17047,594,2691,58,232,-4506,136,35,-296
147,17047,635,2690,-652,-1116,-3090,-94,439,-576
148,17035,582,2689,-466,-1836,-2220,-188,-197,-10
149,17047,612,2690,154,66,-5240,-78,70,199
150,17047,659,2691,36,-1166,-3288,129,225,158
151,17047,582,2691,38,138,-4106,161,-432,99
152,17047,585,2690,274,-102,-3918,58,143,-202
153,17035,592,2690,-82,-36,-3680,80,-216,-488
154,17035,568,2690,-128,-378,-4480,-71,73,199
155,17035,593,2692,-98,-934,-4086,16,121,181
156,17047,525,2690,-134,-24,-4656,6,197,-13
157,17047,536,2691,4,54,-4278,-94,439,155
158,17047,493,2691,74,-154,-3682,49,-98,-417
159,17047,465,2689,126,-884,-3122,0,162,-317
160,17047,467,2691,132,-380,-4036,87,-98,-84
161,17047,541,2691,176,-850,-4002,-46,19,-146
162,17047,502,2691,172,-570,-4624,29,-279,-523
163,17035,465,2691,-252,-484,-3890,-87,54,-134
164,17035,481,2691,-206,-614,-3986,-87,121,-7
165,17047,467,2690,-180,-318,-3986,100,-92,116
166,17047,422,2692,58,-828,-3874,6,-540,152
167,17035,483,2691,-110,-982,-3734,-16,-38,152
168,17035,427,2692,162,-28,-4146,6,-26,96
169,17035,449,2690,-30,-332,-4056,200,-238,-273
170,17047,433,2691,-116,-528,-3682,109,-76,1
171,17047,413,2691,70,-96,-3940,-6,-82,84
172,17047,421,2691,266,496,-4902,-116,350,-143
173,17047,451,2691,82,24,-4200,97,-172,-78
174,17035,424,2690,-44,296,-3354,35,203,37
175,17035,433,2692,12,-22,-3798,67,-92,-149
176,17035,449,2692,378,-582,-3544,29,146,-626
177,17047,447,2692,-278,146,-3470,-81,150,-305
178,17047,436,2690,70,6,-3750,-94,44,-323
179,17035,457,2692,58,-188,-4142,80,73,166
180,17035,488,2693,-58,114,-4190,16,241,81
181,17047,502,2693,-100,-160,-3836,26,-6,-7
182,17047,521,2691,130,-1382,-3194,139,102,-240
183,17047,518,2692,386,-444,-3894,42,-73,196
184,17035,486,2689,-212,-206,-3692,51,-219,-49
185,17035,521,2692,-156,-192,-3682,48,188,131
186,17035,491,2690,-214,294,-3810,129,-222,69
187,17035,526,2691,-106,434,-4052,-36,-276,-19
188,17035,485,2691,72,560,-3652,0,-298,-214
189,17035,541,2691,-188,1078,-4150,45,241,-146
190,17035,472,2690,-428,1220,-3880,-104,-47,10
191,17035,411,2691,-22,1680,-3422,-113,314,-285
192,17035,507,2691,-48,2552,-5162,-443,67,-199
193,17047,539,2691,-194,660,-3426,132,127,-46
194,17035,583,2692,1406,866,-4710,193,-273,-302
195,17035,660,2689,-38,1370,-3290,306,270,-326
196,17035,672,2689,130,86,-4094,474,104,57
197,17035,713,2690,-108,1678,-4754,329,594,16
198,17035,750,2690,-952,886,-3598,109,-6,-326
199,17035,777,2690,-782,-444,-3960,245,245,-178
200,17035,770,2690,486,434,-3062,297,47,-226
201,17035,783,2690,324,664,-5484,390,-231,-217
202,17035,778,2691,38,-234,-4312,213,-143,-40
203,17047,781,2689,-798,430,-3792,61,-231,28
204,17047,847,2690,-796,672,-2174,0,292,51
205,17035,768,2691,-536,1196,-2372,180,-127,116
206,17035,861,2691,-630,-110,-1544,242,153,-25
207,17035,853,2691,-126,1670,-3616,122,350,-84
208,17035,959,2691,-522,1052,-3134,-294,-153,-40
209,17035,936,2690,526,302,-2884,-49,-171,-5
210,17047,973,2689,538,2124,-5598,16,-184,-52
211,17047,1009,2689,586,316,-3260,252,-54,-99
212,17035,1105,2689,-564,944,-3380,-197,-153,-46
213,17035,1039,2690,-598,-240,-3994,35,105,-264
214,17047,1067,2690,-1270,-108,-2198,210,264,-491
215,17035,1117,2691,520,-226,-4006,116,-86,-709
216,17035,1115,2689,-936,-200,-3282,226,-54,-267
217,17035,1067,2689,122,-1930,-3680,190,156,-199
218,17035,986,2690,-920,-214,-2824,122,388,-208
219,17047,1006,2690,106,-300,-3318,-236,38,-279
220,17035,1005,2690,556,-1286,-3802,-139,51,31
221,17035,883,2691,-464,-1946,-2828,180,-346,264
222,17035,893,2690,-570,34,-2722,67,711,-314
223,17035,909,2691,200,-384,-2290,235,-171,-37
224,17047,815,2691,116,-1346,-3204,219,-406,-305
225,17047,863,2691,-298,-516,-4434,297,80,-411
226,17047,877,2691,12,218,-4768,-58,111,13
227,17035,920,2690,-560,-418,-5132,-87,153,140
228,17035,869,2690,452,-466,-3212,-1,215,-149
229,17035,949,2691,-232,-614,-2676,142,-400,-329
230,17035,878,2691,-794,102,-2510,197,153,-379
231,17047,919,2690,-246,-874,-4306,58,206,-429
232,17047,986,2690,114,-844,-3550,-107,-162,-282
233,17047,817,2692,208,-628,-4412,-426,489,-455
234,17047,841,2690,278,-680,-4138,-242,169,-69
235,17047,877,2692,-38,88,-4572,-142,39,137
236,17047,877,2692,-60,-642,-4166,-26,-73,-55
237,17047,879,2691,232,186,-4414,-246,-124,-108
238,17035,870,2691,-76,-64,-4196,-97,143,-196
239,17035,822,2692,-100,-1248,-4172,0,-57,-7
240,17047,818,2691,470,76,-3538,132,-425,-317
241,17035,829,2693,230,-108,-4160,132,-117,146
242,17035,717,2692,-410,-520,-4562,126,-276,34
243,17047,881,2690,-326,-230,-3852,42,-117,225
244,17047,702,2691,270,-354,-4772,74,54,-202
245,17047,790,2692,44,-292,-2894,51,-111,-341
246,17035,810,2692,176,224,-3918,0,327,-382
247,17035,784,2691,2,-124,-2926,-49,-185,-252
248,17035,889,2691,72,338,-5068,29,-365,81
249,17035,814,2691,100,-1552,-3188,155,-178,-388
250,17047,817,2691,-384,324,-4186,142,-86,-105
251,17047,871,2692,-150,218,-4146,26,216,441
252,17047,821,2691,60,-150,-3200,316,188,-220
253,17035,964,2690,-308,-58,-4256,-149,543,-464
254,17035,875,2691,-344,328,-4672,-142,207,-28
255,17035,847,2691,-158,452,-4184,-120,41,-137
256,17035,854,2691,-4,-1682,-6640,220,-266,-329
257,17047,833,2692,388,-2412,-3262,216,-16,-128
258,17047,862,2691,-150,-670,-4114,61,-10,-438
259,17047,828,2690,-220,-88,-4020,-120,175,149
260,17035,828,2691,-232,782,-3142,-136,-225,158
261,17035,874,2691,-330,174,-3956,-16,-127,-290
262,17047,711,2692,240,1128,-6166,67,378,-476
263,17047,775,2692,-776,772,-3626,-58,-184,-161
264,17035,823,2691,-748,1716,-3164,-26,381,-556
265,17035,845,2690,-284,2366,-4442,-252,244,107
266,17035,892,2692,1994,2774,-5736,-733,-378,-261
267,17047,958,2691,-2318,704,-4618,-152,-225,-137
268,17047,934,2690,-24,1358,-5558,106,467,90
269,17047,959,2690,1674,-138,-6268,145,435,-762
270,17047,978,2691,-1616,1280,-3486,90,53,-258
271,17035,1087,2690,-536,2036,-3836,22,298,-175
272,17035,1026,2691,380,388,-3578,284,229,-84
273,17035,1055,2690,-86,52,-4040,-126,149,-99
274,17047,1060,2691,888,-456,-3994,-133,172,110
275,17047,948,2690,-26,-1258,-4738,171,54,-338
276,17047,1032,2692,494,-780,-4522,93,156,-458
277,17047,890,2691,-692,-248,-3470,220,-244,-508
278,17047,1050,2692,590,-1870,-1568,313,315,-1885
279,16988,934,2690,-366,-632,-5746,113,-149,-128
280,16988,924,2691,296,-1146,-3084,293,-51,-202
281,16988,915,2690,52,-42,-4232,19,-235,-16
282,16988,875,2692,-562,-1200,-2394,74,-35,-175
283,16988,880,2691,-424,-128,-2344,242,-162,-1543
284,16988,1028,2690,-162,-498,-3770,-223,346,-656
285,16976,840,2690,448,-192,-4258,-62,-419,-815
286,16976,898,2691,88,-222,-3282,-65,63,-134
287,16976,907,2690,538,-932,-3508,-136,-45,146
288,16976,852,2690,-102,894,-4074,113,817,296
289,16976,888,2691,-708,-642,-2536,180,-153,-329
290,16916,930,2691,234,-452,-4118,-33,-38,-258
291,16916,933,2690,110,-1238,-3240,-126,-219,-158
292,16760,900,2690,330,-160,-4210,-181,-149,-22
293,16497,861,2691,32,264,-4526,-188,-130,-476
294,16497,911,2692,104,-1294,-4084,300,-152,102
295,16163,889,2692,398,-892,-3986,26,-241,-190
296,16163,977,2690,-576,-838,-3738,-146,400,-220
297,15876,781,2691,-824,-1068,-4034,-94,366,267
298,15876,862,2691,-396,-266,-3274,-188,-22,169
299,15828,852,2691,-278,-1102,-4764,-84,190,361
300,15840,829,2692,264,-544,-4484,-7,51,184
301,15840,827,2691,-498,-482,-3178,-133,86,-376
302,15876,946,2689,632,-300,-6118,100,89,-317
303,15876,885,2690,-148,-86,-3540,-29,222,54
304,16031,900,2690,316,-940,-3178,-55,-73,137
305,16174,940,2690,138,-46,-2396,-191,197,479
306,16174,889,2690,-58,562,-2938,-333,-197,1773
307,16282,1001,2691,-298,70,-4728,-55,-263,125
308,16282,906,2691,-216,-602,-3408,180,-99,-37
309,16318,907,2690,74,-620,-2806,413,-251,-700
310,16318,981,2691,1040,120,-5824,-23,-432,-570
311,16318,842,2691,-694,-1030,-2898,-39,-89,113
312,16270,969,2692,-380,-536,-3282,-110,150,529
313,16270,904,2690,262,90,-4224,-33,133,225
314,16055,926,2691,78,524,-3830,29,-261,122
315,16055,771,2691,470,-670,-3770,-33,-276,-105
316,15947,992,2690,138,454,-3044,-275,-378,-444
317,15947,892,2692,-842,1656,-2408,-339,-29,22
318,16198,885,2691,-1394,1710,-2884,100,-308,140
319,16808,837,2692,-386,3576,-4874,-294,336,-149
320,16808,792,2691,130,1894,-3302,-71,41,-55
321,17000,841,2690,80,176,-3434,183,234,252
322,17000,864,2691,1074,1570,-2740,-142,448,-13
323,17011,914,2690,656,2226,-4512,-91,-339,-229
324,17011,917,2691,832,238,-4168,106,-177,-358
325,16964,987,2691,-146,272,-2204,-62,-816,-226
326,16976,976,2691,-786,1298,-4888,116,-276,49
327,16976,984,2690,14,206,-4102,-113,60,49
328,16964,1085,2690,266,2044,-6832,-362,-162,-66
329,16964,967,2691,-402,-290,-3974,106,171,122
330,16964,946,2691,-34,-1044,-3660,264,175,-178
331,16964,1017,2692,366,-346,-4678,-13,-108,-87
332,16904,1082,2691,344,-1114,-4266,261,219,-812
333,16760,901,2691,342,86,-4776,-71,28,-111
334,16760,939,2690,400,-406,-3516,84,-80,326
335,16509,901,2691,590,-1334,-3466,45,-54,146
336,16509,1052,2690,834,-274,-4288,203,-194,-559
337,16174,889,2692,-688,-1334,-3588,87,-248,-10
338,15971,971,2691,-228,-900,-4108,16,117,-199
339,15971,888,2691,-596,128,-4956,-120,-16,-332
340,15756,895,2691,-676,194,-4594,-233,-181,163
341,15756,855,2689,446,-1436,-3732,3,-226,237
342,15708,984,2690,114,-508,-4466,48,-63,281
343,15708,873,2691,164,612,-4252,-91,-216,647
344,15744,833,2691,-854,-244,-2920,-148,105,196
345,15947,896,2690,14,1606,-3652,-84,168,-290
346,15947,845,2690,-152,-728,-4158,-13,67,267
347,16354,842,2691,-404,594,-4616,-23,10,128
348,16354,866,2690,-410,494,-4646,-184,258,152
349,17035,874,2691,-388,-1040,-3562,29,76,446
350,17035,958,2692,400,-372,-1590,-103,204,-394
351,17035,840,2690,1220,150,-4166,-42,-333,113
352,17035,897,2692,-582,-2210,-3790,103,57,-190
353,17035,843,2692,-280,-712,-4620,-29,387,-426
354,17047,905,2689,-268,-550,-3392,100,-83,-1001
355,17047,722,2690,-594,1454,-3414,-120,-22,228
356,17035,900,2691,-90,-44,-3402,-378,-60,181
357,17035,871,2691,4,146,-3590,51,-95,-40
358,17047,935,2691,-64,-3024,-3570,145,293,-178
359,17035,820,2691,-674,-688,-4042,-81,-3,-352
360,17035,892,2690,-518,92,-3148,161,101,-1372
361,17047,979,2690,-368,138,-4368,-62,-276,-464
362,17047,836,2691,166,750,-3962,151,-35,-438
363,17035,892,2690,136,-946,-4684,171,-31,25
364,17035,922,2690,-930,-2242,-3608,84,-111,349
365,17047,871,2692,-100,-710,-2746,197,296,225
366,16976,865,2691,330,-460,-3822,226,86,323
367,16976,836,2690,96,330,-4972,-30,269,93
368,16976,899,2690,164,-472,-3776,-71,29,-19
369,16976,807,2689,-404,592,-4454,168,67,81
370,16976,962,2691,158,708,-4396,23,337,-240
371,16976,863,2691,-2,686,-5026,226,-374,122
372,16976,835,2692,132,96,-3616,19,-302,-237
373,16904,883,2690,396,-384,-4768,-39,-54,152
374,16904,923,2691,-406,30,-3712,38,299,43
375,16653,843,2691,-66,-232,-4552,67,-153,-164
376,16653,817,2692,-180,-162,-4070,103,-70,-240
377,16306,837,2692,-592,72,-3844,-39,283,63
378,16115,783,2691,-608,-1998,-1646,494,-743,-134
379,16115,744,2691,-1146,-504,-4072,-52,-298,349
380,16043,833,2690,-694,-1182,-2892,148,266,-376
381,16043,744,2690,-90,-310,-4612,-168,-6,193
382,16043,778,2690,-22,-414,-4560,-149,197,308
383,16043,798,2691,-64,-366,-3528,93,438,541
384,16043,759,2690,94,262,-4186,-39,209,290
385,16043,846,2690,918,-854,-5524,26,166,497
386,16043,725,2690,-348,-48,-3288,90,270,326
387,15947,774,2692,-712,488,-3860,-33,200,275
388,15947,802,2691,52,438,-4116,-42,155,237
389,15601,701,2691,-34,1466,-4616,-152,-276,81
390,15601,816,2690,-394,296,-4194,67,-285,-164
391,15146,740,2691,-1138,676,-3586,58,271,4
392,14955,768,2691,-42,-116,-3120,-175,-435,402
393,14955,770,2691,-1610,1756,-4596,-165,-216,240
394,14931,809,2690,-188,1878,-3340,-284,553,476
395,14931,826,2689,-50,128,-2974,64,92,340
396,14919,830,2689,-68,892,-4512,274,124,476
397,14991,773,2690,-252,3756,-5290,-219,197,653
398,14991,876,2691,-56,104,-4218,-33,-47,620
399,15062,881,2689,-732,302,-3632,51,73,715
400,15062,949,2690,-1964,-294,-1834,-236,-108,962
401,15122,932,2691,788,504,-4904,19,244,670
402,15122,948,2690,-1134,152,-3880,-278,458,723
403,14955,1030,2689,-200,2062,-1722,-132,-101,588
404,14692,968,2690,-180,76,-4502,423,-416,529
405,14692,929,2691,-70,-42,-4476,436,-406,570
406,14465,979,2692,-82,726,-4868,-346,-286,278
407,14465,986,2691,-1054,-908,-4240,-94,235,712
408,14333,1015,2691,-386,-1310,-2336,-33,-482,871
409,14333,979,2691,-664,-756,-3776,-62,-50,570
410,14333,1017,2693,122,-1298,-3818,16,-83,703
411,14405,944,2691,-848,-518,-4548,-223,-336,1039
412,14405,960,2691,306,-636,-4132,58,152,1021
413,15074,1012,2690,-694,566,-3484,-194,-298,947
414,15074,1007,2691,852,612,-5150,-278,277,992
415,16306,1007,2692,-1336,-1178,-5062,84,219,614
416,16306,944,2690,1310,-794,-4372,-120,1581,600
417,17035,1079,2691,1732,-344,-4716,35,-267,-373
418,17047,1012,2692,546,-1054,-3948,187,155,-382
419,17047,970,2691,-630,-330,-3680,93,127,-258
420,17035,927,2689,568,-130,-4180,-20,239,-84
421,17035,1022,2689,224,-550,-4568,290,-257,-40
422,17047,955,2690,654,-1584,-3620,77,-6,-140
423,17047,968,2690,138,-278,-3658,71,-197,-117
424,17047,906,2690,-494,152,-4338,164,324,-352
425,17047,1036,2690,36,-1110,-4126,-100,60,-220
426,17047,911,2689,70,472,-3910,64,32,49
427,17047,968,2691,-278,-754,-3894,64,44,-61
428,17047,1027,2691,-62,428,-3706,-97,-378,-63
429,17047,885,2690,424,584,-4314,-65,311,-229
430,17047,958,2690,242,6,-3334,-178,-80,-452
431,17047,938,2689,240,406,-4108,132,-168,-117
432,17035,953,2691,386,-320,-7360,-217,-556,721
433,17035,817,2691,198,-206,-6010,-113,19,723
434,17047,1001,2690,-394,-810,-3280,-239,327,532
435,17047,946,2692,-10,496,-3486,-36,108,49
436,17035,854,2690,332,-244,-5092,61,-318,467
437,17047,826,2690,216,-820,-4550,67,-337,-66
438,17047,816,2692,136,422,-4636,100,26,-34
439,17035,897,2692,140,132,-3074,-297,86,-31
440,17035,894,2691,-194,-572,-3248,-97,23,334
441,17035,943,2691,726,-1350,-4322,64,-356,-184
442,17035,914,2690,188,-12,-4134,-23,-35,-128
443,17035,934,2690,-180,68,-4670,-94,-19,169
444,17047,918,2690,-618,-410,-4122,129,89,-134
445,17047,939,2691,112,584,-3480,61,16,-111
446,17047,918,2691,286,-828,-4100,-165,-232,435
447,17047,994,2691,502,-22,-4744,-45,77,-903
448,17035,859,2691,32,612,-5088,26,121,-114
449,17035,958,2690,-176,-1398,-3038,184,289,-137
450,17011,896,2691,294,-380,-3806,132,-267,-81
451,17000,901,2689,-134,-704,-3830,-139,-108,-173
452,17000,912,2691,574,-334,-3106,-75,-277,-237
453,17000,911,2691,314,-6,-4140,-20,-251,-119
454,17000,929,2692,-416,278,-3876,-84,365,187
455,16964,934,2691,744,-634,-3926,23,188,-229
456,16964,1063,2690,-1026,-284,-2646,-210,292,140
457,16976,984,2690,28,230,-3364,284,213,-105
458,16976,1006,2692,92,834,-3218,497,-50,-181
459,16976,961,2691,88,1232,-5790,-465,502,-122
460,16976,1061,2690,-516,1228,-4410,-394,-130,-285
461,16976,1023,2691,28,924,-4740,-278,331,-240
462,16976,1046,2690,-174,208,-2058,-168,35,-385
463,16736,1078,2691,584,790,-3748,403,44,-187
464,16736,1117,2691,-278,986,-4388,-149,-117,-273
465,15876,1123,2691,-252,1762,-2528,-136,-228,143
466,15876,1183,2690,-524,3212,-9384,16,-184,-43
467,15062,1283,2691,-1600,2806,-5112,-301,-48,-579
468,15062,1329,2691,-1802,5252,-5332,-439,-140,-290
469,14584,1363,2689,-4690,1940,1556,884,-1582,-125
470,14453,1358,2691,-3930,3024,-7380,219,263,467
471,14453,1323,2689,-1402,568,-1768,-352,73,953
472,14871,1620,2688,-2232,1870,-2590,93,-403,1398
473,14871,1478,2691,-3566,932,-328,-49,-10,1410
474,16186,1500,2691,-278,-376,-7178,326,226,1345
475,16186,1523,2691,156,-454,-1840,180,968,1204
476,17035,1366,2691,2096,-1758,-2452,265,334,72
477,17035,1486,2692,3650,648,-4958,-71,-137,561
478,17035,1411,2691,2170,1042,-2578,-239,-190,-455
479,17035,1366,2691,-430,696,-5378,77,-19,-199
480,17035,1352,2692,238,336,-4028,32,-149,-458
481,17035,1303,2690,-160,-1876,-3308,55,-200,13
482,17035,1301,2691,324,-830,-2356,-162,3,-205
483,17035,1173,2691,-94,362,-4542,-462,302,-311
484,17047,1139,2691,188,-308,-4466,-184,-502,-335
485,17047,1117,2691,-1246,-1590,-3588,300,394,-774
486,17035,1165,2690,292,-640,-5116,29,-187,-66
487,17035,1105,2691,-1010,-1388,-3226,184,-35,-19
488,17035,1213,2690,562,-3098,-1578,410,-120,-370
489,17035,1088,2691,-2098,-3402,-1010,-9,-673,-108
490,17035,1041,2689,-1116,-3776,-1026,106,422,520
491,17035,1053,2690,480,-1498,-7336,-210,-289,-282
492,17035,1052,2689,804,-3516,-4444,300,241,-16
493,17035,994,2690,-18,304,-4028,-182,98,-161
494,17035,931,2690,-286,-2872,-1346,64,25,87
495,17035,889,2689,66,-972,-5244,-133,-165,119
496,17047,892,2689,-960,1176,-2986,-278,89,261
497,17047,1016,2690,480,140,-3252,-7,-35,517
498,17035,922,2690,-300,-82,-4314,242,89,-361
499,17035,1045,2691,-150,1572,-4854,-65,406,-511
500,17035,1020,2690,-270,146,-2662,-29,-336,-211
501,17035,1146,2691,-136,-690,-2820,-49,-133,-426
502,17047,1026,2691,100,146,-3958,-23,413,-164
503,17047,997,2691,-148,-926,-3248,-104,381,-299
504,17047,1041,2691,-390,672,-3318,-68,-86,-226
505,17035,1074,2690,216,-116,-3538,-181,-241,169
506,17035,968,2691,-268,222,-3788,-142,-26,31
507,17047,987,2692,-64,1518,-4126,-188,-689,-264
508,17047,1024,2690,838,678,-4944,-116,242,517
509,17035,943,2690,-784,3142,-4324,-359,-124,87
510,17035,939,2692,-470,148,-1390,64,-137,-84
511,17035,931,2690,-186,1716,-4952,222,80,-226
512,17047,981,2689,-488,1226,-1930,-217,-261,-102
513,17047,1018,2690,140,512,-3166,74,-565,-61
514,17047,938,2691,-26,632,-3744,155,28,-25
515,17035,1053,2690,-86,-450,-3516,-139,-178,-155
516,17035,1063,2691,-262,2530,-3920,-230,429,-402
517,17047,1138,2691,-994,774,-2610,-210,-190,405
518,17047,1091,2691,754,258,-3744,-42,232,-49
519,17035,1086,2691,768,-390,-4416,-13,-114,-19
520,17035,1087,2690,-654,-152,-2316,151,16,158
521,17047,1124,2690,-278,84,-3692,326,70,-178
522,17035,1068,2689,-332,724,-3644,-10,219,-553
523,17035,1077,2689,-184,-1782,-3558,-359,73,-865
524,17035,992,2691,-998,556,-3506,-91,295,37
525,17035,1117,2691,344,1416,-3336,19,-251,-146
526,17035,1055,2691,-164,-410,-4302,197,-502,387
527,17035,1029,2691,456,-530,-5432,235,-327,-945
528,17047,1051,2690,-282,-752,-3270,-10,-7,-152
529,17047,1208,2691,-146,100,-5068,45,-114,-31
530,17047,1055,2690,-336,1372,-4054,370,-677,-1281
531,17035,1238,2690,320,104,-4082,-104,308,-1157
532,17035,919,2691,-106,-796,-3798,-120,-210,202
533,17035,1149,2690,-196,608,-5564,-210,-248,-205
534,17035,1124,2691,262,-970,-4058,64,-374,-93
535,17035,1047,2690,-152,86,-5136,-139,114,-22
536,17047,1214,2690,126,-486,-1858,-233,242,-570
537,17047,1088,2692,-858,1154,-2946,310,-156,-287
538,17035,1202,2691,640,-1518,-3894,277,-149,-72
539,17035,999,2691,-364,-1354,-2922,255,-168,-167
540,17047,1132,2690,334,-168,-4830,-26,251,-273
541,17047,1149,2690,-154,62,-3934,103,-153,128
542,17047,1148,2691,-114,1094,-3698,-217,-524,-214
543,17023,1239,2691,-814,2296,-4684,35,-102,-119
544,17023,1193,2690,78,-840,-5138,281,152,28
545,17023,1370,2690,2,380,-5922,487,140,-61
546,17023,1049,2690,498,-246,-4458,45,810,-167
547,17047,1315,2690,-378,1056,-4308,-133,86,-411
548,17011,1259,2691,230,1312,-3244,119,242,-140
549,17011,1055,2689,-132,-694,-4278,158,-679,-13
550,16988,1402,2691,-8,-962,-5226,48,556,-146
551,16988,1087,2692,-290,-232,-4128,178,10,-117
552,16988,1270,2689,-500,760,-3740,-190,10,-620
553,16988,1290,2691,-128,760,-1356,-171,-3,-423
554,16988,1206,2691,44,140,-4940,203,-184,-55
555,16988,1271,2691,514,2244,-4162,-210,-181,-352
556,16988,1338,2692,494,-1936,-4016,-84,-365,-152
557,17000,1229,2690,-140,-770,-3174,-142,152,-508
558,17000,1294,2691,404,116,-2224,9,-365,-285
559,16964,1328,2690,-534,-470,-3062,587,-235,249
560,16964,1293,2691,-522,2346,-4010,145,-318,78
561,16976,1308,2690,-798,912,-5136,-136,-28,-102
562,16820,1257,2689,-138,-98,-5230,29,-647,-25
563,16820,1338,2692,322,2266,-5270,-281,124,219
564,16736,1292,2690,-124,226,-2484,359,-514,175
565,16736,1290,2690,-28,672,-3944,245,6,-114
566,16569,1355,2691,-500,1426,-3076,61,-38,-181
567,16569,1325,2690,-536,574,-5088,110,458,-441
568,16330,1361,2691,328,-1980,-3984,200,-518,-379
569,16234,1405,2691,-396,-844,-1336,193,143,-694
570,16234,1401,2692,-216,942,-3740,409,-112,529
571,16210,1271,2691,-142,198,-4756,164,-82,544
572,16210,1382,2690,-956,2244,-4316,-445,-221,-146
573,16198,1348,2691,-126,1238,-2766,-87,207,-7
574,16198,1310,2690,-132,890,-3468,-7,-654,-10
575,16210,1358,2691,10,398,-3976,-213,-51,90
576,16210,1353,2690,-744,1608,-3526,151,366,721
577,16210,1309,2691,-96,-352,-4274,-16,350,915
578,16174,1393,2690,-336,-80,-1954,-52,-63,317
579,16174,1227,2691,-240,-1418,-1834,370,603,526
580,16079,1257,2692,-428,-996,-1212,142,-137,897
581,16067,1110,2692,-394,726,-3380,9,-158,296
582,16067,1160,2691,-242,298,-5592,158,-76,166
583,16091,1161,2690,-920,2166,-4908,80,-661,886
584,16091,1186,2692,-240,182,-3000,513,-203,-223
585,16079,1265,2691,44,-102,-3574,216,930,166
586,16079,1092,2690,-1930,344,-1270,-249,327,1784
587,16163,1139,2690,-480,280,-3838,-781,404,3052
588,16174,1257,2690,380,-586,-4102,-29,60,756
589,16174,1097,2692,-522,-298,-4660,171,302,-31
590,16330,1055,2691,-292,-674,-3822,164,228,299
591,16330,1187,2690,92,-1550,-1766,-6,10,-343
592,16748,1223,2692,-386,438,-4134,-194,562,-167
593,16748,1151,2691,-930,-534,-3162,-68,185,66
594,16976,1165,2691,-576,522,-4140,-16,318,25
595,16964,1176,2691,566,-1030,-5226,245,108,-240
596,16964,1285,2690,-72,-568,-2526,51,-95,-25
597,16964,1364,2690,-516,618,-4042,38,83,81
598,16964,1407,2690,-614,-1610,-2518,7,23,326
599,16976,1447,2690,-316,-256,-2948,109,-247,570
600,16976,1493,2690,-764,1252,-3822,197,143,7
601,16976,1529,2692,-350,30,-1210,51,-178,682
602,17023,1279,2690,1048,3972,-6452,-4,407,122
603,17023,1385,2690,182,2678,-5376,-326,-520,-193
604,17035,1411,2692,-1058,-556,-748,187,-35,-108
605,17035,1474,2690,-284,4296,-4688,229,166,-853
606,17035,1417,2691,-560,2960,-8306,-307,-282,-821
607,17035,1393,2689,-6,-1478,-2638,345,184,-1015
608,17035,1422,2690,-356,4316,-5232,-207,-263,287
609,17047,1443,2690,618,4118,-5970,142,-743,-108
610,17047,1510,2690,-1112,1570,946,-42,241,523
611,17035,1509,2690,-922,3226,-2232,67,683,57
612,17035,1578,2689,1814,792,-8310,-33,-236,-326
613,17011,1591,2688,366,-336,-2208,96,-372,-603
614,16988,1625,2689,390,1192,-5692,-233,-168,16
615,16988,1677,2691,90,-282,-4094,278,181,43
616,17000,1642,2691,514,-534,-6152,181,-85,-399
617,17000,1696,2690,1514,208,-4178,-252,105,576
618,16988,1693,2690,586,736,-2504,61,511,803
619,16988,1698,2690,302,-502,-4072,151,-295,-279
620,17000,1689,2690,796,676,-4332,210,559,-25
621,16988,1797,2692,190,608,-4526,239,-499,163
622,16988,1389,2690,610,-934,-5738,142,251,-432
623,16976,1372,2692,360,-476,-3552,-226,454,107
624,16976,1461,2690,-86,-308,-2492,-288,-426,99
625,16976,1123,2689,-532,526,-3834,16,587,-128
626,16976,1232,2691,796,-1982,-4368,539,-889,-482
627,16976,1305,2691,-790,-1856,-5100,64,293,-49
628,16964,1441,2693,148,-3330,-3880,226,98,-102
629,16964,1214,2691,-462,-2476,-870,-26,-251,-382
630,16976,1462,2691,456,-3696,-3236,-388,47,-181
631,16976,1309,2691,204,-2674,-2930,125,101,-329
632,16964,1121,2689,672,-212,-3130,0,-285,302
633,16964,1153,2690,148,-3146,-5524,209,12,-178
634,16964,1105,2690,-954,-1548,-5270,-136,92,-28
635,16892,1034,2690,178,-2474,-4906,-197,89,28
636,16892,966,2690,992,-818,-4958,-94,-12,-429
637,16701,926,2691,670,-3676,-3210,97,-413,-193
638,16701,867,2690,-36,-1292,-3636,58,251,-131
639,16461,898,2691,-130,-684,-2798,106,-51,7
640,16174,837,2691,22,-834,-3592,184,168,-202
641,16174,843,2693,-1656,778,-3144,16,-673,-25
642,15864,916,2690,-1106,-838,-3064,-288,378,682
643,15864,895,2691,-568,-936,-2938,-252,289,-7
644,15684,1055,2691,-674,398,-4778,0,-184,-246
645,15684,954,2691,-710,578,-3580,0,42,267
646,15577,982,2691,818,-240,-4352,6,241,-376
647,15529,977,2691,128,-440,-3776,-265,-95,555
648,15529,1008,2690,26,888,-4218,-184,-38,-34
649,15385,1010,2691,540,298,-4208,38,35,261
650,15385,1027,2690,-248,-470,-3002,80,-111,-122
651,15230,964,2691,-128,200,-4102,80,-533,-99
652,15230,959,2690,110,724,-3920,-210,175,131
653,15134,929,2689,42,1912,-4036,-168,166,393
654,15051,898,2691,-1396,2108,-2862,-365,98,520
655,15051,990,2690,136,2476,-3690,-155,-165,550
656,15051,873,2689,-984,830,-4652,55,-28,461
657,15051,968,2690,-1176,-788,-4670,-113,-282,729
658,15062,1010,2691,-978,-452,-2062,48,-16,723
659,15062,1032,2690,-286,328,-4010,126,146,31
660,15051,1054,2689,182,506,-3242,-164,99,464
661,15110,1079,2690,-522,684,-3412,-62,-315,617
662,15110,1102,2690,156,902,-5798,-155,181,544
663,15349,1223,2691,-680,1510,-3470,100,-54,408
664,15349,1071,2691,-108,-1836,-3982,126,-324,777
665,15708,1150,2689,-262,1536,-2344,-7,-133,650
666,15708,1103,2690,-232,262,-6370,-149,-83,667
667,15768,1431,2690,716,982,-3716,22,-562,128
668,15876,1312,2691,842,3960,-5530,-87,248,514
669,15876,1233,2690,288,288,-8586,-55,118,482
670,15935,1405,2690,-420,4078,-3944,142,-193,1392
671,15935,1495,2690,492,538,336,390,-228,694
672,15959,1514,2690,-914,-2284,-3798,406,333,653
673,15935,1485,2690,-292,1074,-2970,461,457,358
674,15935,1548,2688,304,2852,-3894,-107,64,809
675,15959,1541,2689,782,1016,-7716,229,299,270
676,15959,1606,2690,-1324,2808,-5472,-246,-41,526
677,15947,1569,2690,-318,-1708,-2774,300,-207,346
678,15947,1419,2690,370,-100,-5086,6,61,871
679,15935,1461,2691,-128,-1178,-3772,-236,366,629
680,15959,1417,2691,324,-168,-2532,-969,-207,1755
681,15959,1283,2689,10,-1408,-4114,171,-105,22
682,15971,1430,2692,-40,-1198,-4518,213,-130,326
683,15971,1323,2692,-610,-340,-1092,445,-299,632
684,15983,1284,2690,-1818,1018,-4572,-394,-155,464
685,15983,1423,2690,448,-448,-3806,-123,207,408
686,15971,1290,2691,-1468,-222,-940,-136,343,1036
687,16043,1356,2691,-266,-1238,-2058,61,-123,181
688,16043,1368,2690,-174,-1350,-4512,58,-505,57
689,16055,1347,2691,-478,-1476,-2736,87,203,393
690,16055,1235,2690,-132,-1812,-4028,206,-203,-40
691,16043,1282,2690,-18,-1430,-5122,-184,267,912
692,16043,1179,2690,206,-2944,-524,300,-464,105
693,16043,1227,2691,206,-458,-6048,-459,4,555
694,16103,1261,2691,380,-1968,-1914,-423,-6,140
695,16103,1184,2691,240,-1706,-4550,277,-123,34
696,16163,1159,2690,-318,1042,-3922,-230,6,222
697,16163,1290,2690,-128,-710,-2848,158,58,-299
698,16186,1077,2690,602,-1976,-2640,93,107,555
699,16198,1209,2690,856,978,-4780,-110,13,452
700,16198,1135,2690,-180,-960,-3734,55,4,600
701,16222,1302,2692,672,236,-5514,-268,394,555
702,16222,1153,2691,-38,356,-5306,-10,108,446
703,16270,1335,2690,-64,1570,-3020,383,-175,-326
704,16270,1041,2691,-486,-1312,-2702,64,416,-267
705,16318,1428,2693,162,-2560,-2586,116,381,264
706,16318,1163,2691,380,-2416,-3628,-26,-413,-992
707,16318,1377,2690,-500,-266,-5232,-91,317,647
708,16354,1653,2690,562,-1750,-4472,-58,42,662
709,16354,1365,2691,-60,-840,-3918,-62,-159,473
710,16426,1208,2691,80,3138,-5354,232,-333,-34
711,16426,1286,2690,58,-282,-6620,-265,-534,393
712,16414,1207,2690,-1156,868,3000,-168,413,856
713,16461,1291,2691,28,1204,484,-75,76,105
714,16461,1336,2691,348,56,1458,-268,-152,102
715,16497,1372,2691,-800,1048,-2674,484,353,-137
716,16497,1377,2690,-24,4154,-10304,-236,-57,517
717,16533,1464,2690,-158,2952,-2924,161,632,-402
718,16533,1468,2691,806,-490,-4194,465,181,-290
719,16617,1467,2690,-844,-342,-2574,242,-260,228
720,16689,1514,2690,1868,-1790,-4776,-249,-238,-264
721,16689,1688,2690,-716,1400,-916,-175,505,202
722,16772,1456,2691,-498,920,-3070,-123,92,152
723,16772,1544,2690,2260,-2410,-7034,119,-203,520
724,16820,1529,2691,-1220,-2016,-3738,219,54,644
725,16820,1563,2691,664,-198,-3462,-246,82,370
726,16808,1652,2690,-720,578,-7008,51,613,-514
727,16808,1332,2690,30,-320,-3058,122,-117,181
728,16808,1495,2691,236,-1058,-6220,13,134,-296
729,16796,1513,2691,68,862,-5778,200,531,278
730,16796,1343,2690,-136,-718,-3914,-52,10,60
731,16868,1392,2691,40,-1250,-2098,-62,117,1289
732,16868,1417,2690,-130,328,-4670,132,-47,-267
733,16856,1527,2690,94,-1156,-5712,-84,324,1
734,16856,1415,2690,-374,1194,-5544,-133,-118,84
735,16856,1468,2691,192,-1344,-4962,-78,50,-199
736,16808,1582,2689,-786,1222,-2100,-78,-212,709
737,16808,1396,2690,214,-1192,-1058,100,251,945
738,16868,1373,2690,-200,-1338,-2948,420,-41,78
739,16880,1356,2690,-906,-2548,-2410,93,-232,-125
740,16880,1351,2692,-798,-2428,-2734,87,-241,-579
741,16964,1293,2691,1054,-992,-4556,274,-381,22
742,16964,1355,2690,-194,-1478,-2718,164,82,-37
743,16976,1247,2690,48,-1422,-3074,29,375,-178
744,16976,1291,2691,334,-1938,-3550,352,-305,-125
745,16976,1256,2690,-690,-610,-3050,48,-90,-111
746,16964,1256,2691,160,-1556,-4574,387,-6,252
747,16964,1216,2690,-26,-746,-4340,-165,95,261
748,16976,1204,2690,94,-3072,-2960,-13,251,-173
749,16976,1127,2691,950,-1164,-6406,48,-134,-5
750,17000,1103,2691,702,-2262,-4982,-84,-209,-184
751,17000,1133,2689,1888,-2934,-4588,365,-308,-282
752,17000,1046,2691,862,364,-7298,-178,140,-25
753,17000,1028,2691,18,-1686,-2706,-136,-492,255
754,17000,1098,2690,98,-736,-4312,26,251,-111
755,16988,932,2690,-50,-248,-2580,-23,19,-108
756,16988,951,2690,196,-200,-3612,403,-184,-305
757,17023,993,2690,278,266,-6066,268,92,-352
758,17011,993,2690,106,-1188,-3488,-136,54,659
759,17011,1016,2690,206,870,-4922,9,-292,-152
760,16988,1189,2689,-488,-1556,-3172,-91,-238,-111
761,16988,987,2691,-326,-154,-3028,361,190,13
762,16988,1087,2692,-300,-322,-4706,-58,-584,461
763,16988,991,2691,-414,208,-5274,109,-171,-214
764,17000,1075,2689,256,-1216,-3502,193,-45,-155
765,16988,1088,2689,-62,152,-2772,190,67,-184
766,16988,1224,2691,-54,1200,-4136,55,267,-128
767,17000,1209,2689,544,-1860,-3140,-20,-54,-1794
768,17000,1072,2690,234,436,-4162,-91,-247,-299
769,17000,1091,2690,716,1070,-5152,-110,277,163
770,17000,1104,2692,-990,1156,-3150,128,-191,-99
771,16988,1107,2689,-158,3204,-3884,-310,213,-629
772,17023,1061,2691,-212,564,-2698,-168,76,-290
773,17023,1034,2691,342,-2410,-3530,381,413,16
774,17000,1082,2692,170,3056,-2654,-346,-365,4
775,17000,1113,2692,-390,2316,-2760,35,54,287
776,16964,1132,2690,198,-1870,-3520,0,-445,166
777,16964,1153,2690,-786,1878,-3168,-252,486,317
778,16964,1265,2690,-850,2052,-4430,-226,-365,-143
779,17000,1203,2691,228,2404,-3128,197,209,66
780,17000,1202,2691,-536,944,-5236,-75,63,107
781,17000,1224,2690,-182,-940,-3856,119,-273,-122
782,17000,1108,2691,-272,-1076,-4864,155,-222,290
783,17000,1283,2691,156,-1316,-1760,-420,-149,3291
784,17000,1136,2691,528,-560,-6490,-78,-273,-152
785,17000,1116,2690,-92,-1844,-3230,9,384,146
786,16976,1154,2691,-124,-1090,-4144,25,-29,-231
787,16976,1096,2692,-664,-726,-3490,32,518,-181
788,16976,1106,2689,-198,-1728,-3626,-200,114,-178
789,16976,1129,2691,66,-452,-4408,-242,-45,22
790,16964,1088,2691,-656,-244,-3584,-213,241,-299
791,16976,1086,2691,624,2308,-5316,13,35,-358
792,16976,1328,2691,206,78,-4384,-139,111,-202
793,16976,1094,2690,480,908,-5272,-71,146,264
794,16976,1126,2691,110,-498,-4002,100,-82,-161
795,16976,1064,2691,208,1058,-5140,-297,-374,573
796,16976,1182,2691,-264,-742,-3948,-336,-35,373
797,16964,1060,2691,-74,-62,-3138,32,-245,84
798,16964,1030,2690,196,262,-6446,316,-212,-152
799,16964,1140,2691,238,104,-3080,129,-98,-114
800,16976,1057,2691,-118,-716,-4284,-181,359,547
801,16976,1022,2691,-260,822,-2654,-246,155,-273
802,16976,1062,2692,-344,-606,-3600,210,-371,818
803,16976,1059,2691,110,812,-4712,126,-228,-52
804,16976,1128,2691,-230,-1152,-3462,177,-191,43
805,16976,1091,2691,464,-1202,-2878,106,479,-181
806,16976,1243,2689,-868,-1046,-4686,-213,-108,-128
807,16976,974,2689,-224,-320,-3430,129,-153,-662
808,16976,1106,2690,-686,-352,-2390,87,-10,-853
809,16964,1102,2691,114,46,-3526,203,64,-455
810,16964,1134,2689,-296,-1572,-4124,13,464,152
811,16976,1095,2691,-114,-1478,-5188,113,-231,-43
812,16976,1056,2691,-218,-1858,-3424,-142,219,-72
813,16976,1057,2689,286,1572,-3958,16,187,267
814,16976,1047,2690,-928,-702,-2160,32,-26,146
815,16976,1076,2691,-240,-268,-4414,142,-60,202
816,16976,1010,2691,334,-290,-4356,-10,-60,169
817,16964,1145,2692,-124,510,-5976,116,124,140
818,16964,960,2689,-190,-772,-3240,-55,270,178
819,16976,1024,2692,-34,-280,-3108,48,-6,-287
820,16976,1030,2692,-182,658,-3276,-158,-219,249
821,16976,1055,2690,-126,-246,-4788,-210,172,582
822,16976,1101,2690,-154,448,-4584,-23,-159,-455
823,16964,1042,2690,276,-18,-5354,-281,-86,-37
824,16976,921,2692,190,342,-3642,-19,-301,-96
825,16976,1170,2690,182,-2,-4436,58,127,-296
826,16964,911,2690,-888,-1520,-2726,310,175,-155
827,16964,1028,2692,-264,1178,-4570,113,-12,-173
828,16904,1012,2691,-72,-330,-4270,122,181,-343
829,16904,1136,2691,-1028,-714,-4064,-68,130,679
830,16820,916,2692,-130,-920,-4026,-107,203,-379
831,16748,1095,2691,226,28,-2244,90,127,-229
832,16748,1012,2692,82,1744,-4254,28,-398,105
833,16689,1137,2691,-194,-242,-6758,222,-346,-335
834,16689,881,2691,0,648,-3526,368,70,-90
835,16701,1026,2691,72,488,-3736,126,-57,-28
836,16701,1011,2691,-438,-4,-4148,-20,41,202
837,16701,1137,2691,-166,-654,-5924,-304,524,-1372
838,16748,962,2691,234,560,-5534,-29,369,-417
839,16748,978,2691,434,-344,-4026,-107,140,-49
840,16904,979,2690,470,-838,-3528,-4,489,172
841,16904,1049,2690,-614,2110,-4708,80,-346,31
842,16964,905,2692,838,790,-5874,93,324,-181
843,16964,969,2691,-24,72,-4458,-188,42,270
844,16976,1007,2691,-18,674,-3206,-226,64,-220
845,16988,1094,2691,378,-2064,-2626,142,397,-152
846,16988,935,2690,-58,-1934,-2582,177,-133,-438
847,17000,1001,2692,346,484,-4952,200,112,-181
848,17000,1036,2689,-42,-508,-5442,-136,-263,-276
849,17000,1139,2690,-92,-568,-4274,-75,359,-223
850,17000,956,2692,250,338,-4694,-181,95,-326
851,17000,1073,2691,-254,-342,-3994,-359,76,-261
852,17035,1069,2690,312,-262,-2698,-159,23,78
853,17035,1193,2691,-42,1708,-3198,67,-473,122
854,17047,1012,2691,678,808,-3818,316,454,-111
855,17047,1095,2691,494,-522,-3150,261,352,-520
856,17023,1107,2689,26,982,-5488,-127,444,-90
857,17047,1019,2689,358,-716,-5354,19,-349,16
858,17047,1250,2691,638,810,-4906,-23,-133,-52
859,17047,1149,2690,-426,-102,-1864,164,-336,337
860,17047,1031,2690,-104,-1198,-2570,274,190,-479
861,17047,1179,2690,-362,640,-5372,-210,-219,-181
862,17047,1084,2689,-778,1530,-5798,-320,286,-396
863,17011,1097,2690,-242,-118,-5336,-13,-76,-933
864,17000,1257,2690,1592,510,-6458,32,207,-629
865,17000,1039,2691,196,-1498,-2874,229,-247,340
866,17000,1092,2691,-380,798,-2774,133,-145,-2
867,17000,1070,2691,144,-432,-3406,-204,235,-134
868,17000,1120,2690,-462,-4,-3898,-117,-562,-164
869,17000,1066,2691,72,-4,-4320,70,-325,-290
870,17000,1098,2690,28,-568,-3026,42,149,-217
871,16964,1117,2691,-450,1966,-3696,-404,229,1048
872,16964,1075,2690,-156,-1458,-4592,-194,343,1021
873,16964,1132,2690,474,1348,-5586,19,-216,-117
874,16964,1044,2691,52,270,-3012,22,-16,-78
875,16976,1068,2690,-102,-334,-4240,-39,343,-5
876,16964,1161,2690,-272,-1088,-4074,-36,-95,122
877,16964,1130,2691,466,-162,-4452,48,-181,225
878,16976,1051,2691,-62,-234,-3828,74,-143,-187
879,16976,1079,2689,-136,-1304,-2546,248,353,125
880,16964,1121,2691,178,324,-4322,332,261,205
881,16964,1030,2691,46,574,-4192,365,270,411
882,16976,1034,2690,524,-2890,-5090,474,51,732
883,16904,1134,2688,-272,1210,-3312,51,-308,231
884,16904,1175,2690,198,534,-1470,-330,136,110
885,16892,1057,2689,592,562,-5104,-159,199,105
886,16892,1037,2690,312,-1528,-4944,-65,-80,-99
887,16880,1113,2689,726,-1490,-4908,151,-83,90
888,16880,1062,2690,302,796,-4794,67,89,175
889,16808,1104,2689,602,-1382,-2486,-10,-286,149
890,16736,1197,2690,70,-74,-3564,190,286,122
891,16736,997,2689,680,-494,-2066,-33,464,143
892,16677,1083,2690,110,308,-5016,6,51,-282
893,16677,1099,2691,110,-1868,-3066,6,-82,-264
894,16677,1134,2691,1084,-564,-4322,-20,-89,-16
895,16677,1157,2690,-190,2722,-5742,-220,-343,22
896,16641,1156,2689,-532,-338,-1682,310,105,31
897,16414,1150,2690,-688,-3068,-3610,87,-85,-261
898,16414,1025,2691,490,-264,-4636,-55,222,-376
899,16043,1177,2691,1218,492,-4854,-61,-76,-261
900,16043,1294,2692,-536,-358,-3186,184,-359,-252
901,15756,1141,2691,-240,-130,-3794,116,217,113
902,15756,1113,2689,-350,-544,-3748,-39,239,208
903,15720,1138,2691,-396,-32,-4442,113,127,273
904,15708,1119,2691,-258,-42,-3232,-52,-149,588
905,15708,1125,2690,68,1338,-3292,67,-63,741
906,15708,1156,2691,424,190,-4922,264,-67,-40
907,15708,1083,2690,-782,812,-3916,90,83,240
908,15708,1148,2691,-718,-804,-2618,-249,816,78
909,15624,1198,2690,-500,-1424,-3502,-246,98,217
910,15624,1151,2690,770,1792,-5026,-46,-543,72
911,15194,1116,2691,1712,-1566,-2256,122,105,143
912,15194,1108,2691,-118,-208,-3240,119,-28,576
913,14775,1232,2690,-1080,406,-4406,-49,155,308
914,14775,1063,2690,-942,340,-3296,-10,-619,355
915,14321,1155,2690,-1810,-170,-1232,84,51,326
916,14070,1195,2690,-218,-512,-3162,168,-285,617
917,14070,1104,2690,-1550,-184,-5914,77,-412,1018
918,13879,1162,2689,-128,206,-4466,71,-140,1263
919,13879,1093,2689,-880,1774,-4238,-259,0,2135
920,13795,1205,2690,-344,-240,-5722,-68,54,1319
921,13795,1095,2691,44,-424,-4438,132,-86,992
922,13604,1247,2691,-484,-632,-3222,0,-225,1204
923,13317,989,2689,-416,-730,-4752,242,-89,1057
924,13317,1209,2691,-10,-440,-3088,139,140,1298
925,13293,1093,2689,154,174,-2626,9,-369,1728
926,13293,1206,2689,-314,3584,-5198,-559,-372,1230
927,13281,1159,2691,-2302,-608,-3770,106,-521,1784
928,13281,1081,2690,-712,1006,-6268,168,-232,1746
929,13281,1160,2692,-1408,-940,-3900,-94,131,1761
930,13257,1169,2691,-42,44,-1894,184,528,1726
931,13257,1187,2690,-98,-728,-1778,-233,-194,1413
932,13149,1190,2690,356,462,-2996,109,200,1304
933,13149,1265,2690,-1082,2092,-1706,148,96,1525
934,12838,1149,2691,412,-2422,-2762,-401,-527,1714
935,12838,1144,2691,-794,438,-4226,-39,-108,1914
936,12659,1161,2690,6,-662,-3850,90,336,1826
937,12480,1119,2688,-824,-1434,-3066,103,-123,1552
938,12480,1227,2691,-792,128,-3668,119,-229,2103
939,12468,1040,2690,-558,-892,-4554,164,-29,2017
940,12468,1264,2690,-352,-534,-4228,100,51,1955
941,12468,1072,2689,-68,-96,-5546,-226,-289,2536
942,12468,1156,2690,-614,1582,-4166,-188,-260,2297
943,12468,1153,2691,-262,-1040,1566,-33,-990,5914
944,12468,1151,2690,324,-1234,-3584,646,-104,1796
945,12468,1148,2691,-38,308,-3726,6,-163,2023
946,12492,1141,2692,-514,798,-4848,-52,95,2029
947,12492,1213,2691,-556,-330,-1406,31,241,1964
948,12480,1103,2689,-2016,-122,-3732,22,-193,1964
949,12683,1095,2691,-440,-732,-3620,-97,607,2633
950,12683,1122,2691,172,-1176,-5008,-58,343,891
951,12695,1050,2692,-936,-1506,-1906,-26,-282,2097
952,12695,1110,2689,-58,-308,-3342,-146,584,2103
953,12683,1083,2691,-528,266,-3628,294,216,2321
954,12683,1083,2691,-136,-988,-4362,106,-168,2088
955,12599,1010,2690,-700,-548,-4476,51,378,2592
956,12551,1077,2689,-1032,874,-3966,-230,-121,1973
957,12551,1096,2691,-756,562,-3568,-200,-3,1988
958,12599,1061,2691,-346,-298,-3600,-168,-381,2492
959,12599,1065,2691,-482,40,-4102,94,-336,2232
960,12683,1090,2690,-764,406,-3602,139,-181,2221
961,12683,1089,2690,-118,-3300,-4524,51,317,1858
962,12838,1210,2691,-1096,412,-4816,-394,559,3927
963,13137,1021,2691,-62,-36,-5084,29,251,2091
964,13137,1097,2691,-736,-1378,-5060,129,356,1967
965,13400,1065,2691,-192,822,-3212,112,-274,1728
966,13400,1103,2691,642,-592,-5018,-207,225,2247
967,13532,1201,2691,192,-1012,-3472,19,-378,1899
968,13532,1066,2690,-1444,564,-3288,168,204,1130
969,13532,1117,2691,-688,1238,-2336,-4,267,1846
970,13532,1024,2690,-1112,-690,-2898,-97,444,2017
971,13532,1075,2691,-156,-972,-4400,-242,178,1793
972,13675,1066,2690,-30,80,-4566,48,-143,1525
973,13675,1194,2691,32,2204,-4276,238,-531,1731
974,13879,913,2690,-550,528,-4160,161,-604,1891
975,14070,1210,2689,-1048,-1390,-3966,177,-311,1537
976,14070,1138,2690,-164,1452,-6504,-126,-314,1180
977,14297,1125,2690,-1520,2984,-3860,-449,-209,1605
978,14297,1179,2691,-1054,-1594,-1426,-184,683,2047
979,14716,1023,2690,738,-48,-2196,103,-118,1787
980,14716,1133,2690,1294,-3094,-2976,248,-238,1655
981,15493,1057,2690,-480,1262,-4940,-13,914,1693
982,16808,1225,2691,1524,-230,-5266,-214,485,1166
983,16808,1122,2690,2786,-626,-3128,135,-41,261
984,17000,1266,2691,1962,686,-5090,242,203,550
985,17000,1007,2692,1272,-810,-2518,-46,-302,-426
986,16988,1146,2691,242,-414,-3054,232,-359,-10
987,16988,1084,2692,1142,-946,-4328,413,-489,-986
988,16988,1069,2689,8,548,-3696,-162,-158,-417
989,16964,1174,2691,1030,-992,-4206,77,-86,40
990,16964,1027,2692,-242,1050,-4492,-75,353,-332
991,16976,1101,2689,-1406,48,-1940,-48,17,149
992,16976,1122,2690,924,-602,-5182,180,70,-582
993,17000,1154,2690,1274,526,-5498,-81,423,340
994,17035,1136,2691,-118,-222,-1310,86,209,46
995,17035,1178,2690,-350,496,-3594,-91,32,140
996,17047,1011,2690,124,92,-4188,-26,-76,-231
997,17047,1077,2692,-166,726,-3982,80,318,-152
998,17047,1092,2690,304,1224,-4114,190,101,231
999,17047,1053,2692,134,942,-4962,-197,229,-7
1000,17047,1168,2690,26,-24,-4178,-78,-159,-7
1001,17035,1060,2691,688,-552,-3616,87,-267,275
1002,17035,1059,2690,-518,1204,-2822,-197,-651,267
1003,17035,1093,2692,540,-956,-3386,142,-76,-290
1004,17035,1132,2690,126,-228,-5188,-68,-73,105
1005,17035,1094,2689,-830,-562,-4698,-13,28,-276
1006,17035,1059,2689,-550,-1198,-2564,226,216,-341
1007,17035,1090,2691,262,-502,-2942,-75,-518,-438
1008,16976,1105,2691,-214,-2462,-3210,119,-99,-205
1009,16976,1086,2691,-18,348,-4498,-7,-85,-90
1010,16904,1203,2691,-438,154,-4198,-29,-356,508
1011,16904,987,2690,-284,586,-4280,126,559,158
1012,16461,1066,2691,-448,1214,-5970,-62,16,166
1013,16461,1085,2692,-20,-378,-3216,-213,470,116
1014,15768,972,2689,116,1602,-4948,-120,216,-125
1015,15230,1227,2691,-2558,-166,-3216,-16,-153,-40
1016,15230,1081,2691,524,-1270,-5822,145,-1601,-231
1017,14919,990,2691,-2050,908,-5760,-394,-768,977
1018,14919,1168,2690,-1286,92,-1718,-136,-89,1310
1019,14548,1161,2689,438,-178,-4482,42,-1029,573
1020,14548,1161,2691,362,256,-4736,136,477,847
1021,14417,1230,2691,-822,-524,-1782,303,-3,797
1022,14405,1069,2688,-1246,-1644,-3872,-168,-16,1057
1023,14405,1106,2690,502,-128,-4600,-75,-302,1227
1024,14417,1127,2691,-614,-1644,-2818,22,578,947
1025,14417,1050,2689,-750,-672,-2206,-246,165,939
1026,14405,1098,2690,70,330,-4562,-78,518,980
1027,14405,1152,2691,-186,176,-4822,-74,150,691
1028,14405,1087,2689,-1108,240,-3752,-310,-6,470
1029,14417,1027,2690,-338,390,-3704,3,230,942
1030,14417,1058,2690,-290,624,-4380,213,-31,1027
1031,14405,1057,2690,-122,454,-3990,268,-330,765
1032,14405,1041,2690,-1584,-1900,-2258,13,-635,921
1033,14321,1087,2690,-610,598,-3820,-346,86,971
1034,14106,1149,2691,-760,-102,-4070,-284,48,1425
1035,14106,1014,2691,-652,-1692,-3124,122,-149,1292
1036,13891,1211,2690,68,572,-4370,313,-155,2097
1037,13891,987,2691,-1048,-1036,-2826,275,-139,1307
1038,13783,1127,2690,-44,588,-6990,-16,518,1065
1039,13783,1074,2690,900,-1250,-4792,-391,-664,1413
1040,13711,1162,2691,64,2056,-5992,87,-502,1086
1041,13783,1251,2691,-964,764,-3350,42,502,685
1042,13783,1023,2692,-1328,-256,-3038,67,203,992
1043,13867,1063,2691,-320,1414,-4070,-113,239,818
1044,13867,1042,2690,76,-310,-4896,-81,-99,1301
1045,14022,1059,2690,30,-618,-3898,-236,-181,1319
1046,14022,1071,2690,-414,-2930,-1964,-43,152,1345
1047,14190,1067,2690,744,-3050,-3270,245,791,1690
1048,14405,1054,2690,-510,692,-4500,80,-356,1189
1049,14405,1079,2692,-594,-814,-3324,-113,575,1110
1050,14524,1096,2690,-286,1550,-2702,-113,-260,1558
1051,14524,1166,2691,-438,-2650,-3394,374,-416,1870
1052,14596,926,2691,-302,878,-4014,290,-60,1849
1053,14596,1103,2691,-260,-242,-3384,-126,248,1342
1054,14584,1101,2690,242,90,-6094,32,47,1160
1055,14465,1053,2689,180,26,-4832,9,257,1475
1056,14465,1103,2689,-82,2774,-5486,-378,-273,1407
1057,14285,1069,2692,520,-1168,-3810,106,-299,1192
1058,14285,1072,2691,58,-422,-3418,-36,-57,1189
1059,14225,1081,2690,-726,-100,-2482,-136,7,1216
1060,14297,1124,2690,-754,1880,-5352,132,340,1039
1061,14297,1096,2692,-808,-990,-5780,71,209,1110
1062,14297,1073,2689,226,-232,-2668,136,-9,838
1063,14297,1111,2690,434,848,-4782,13,150,1375
1064,14417,1108,2690,-370,-1326,-3094,-294,86,1280
1065,14417,1133,2690,-124,-1080,-3946,-320,-99,877
1066,14572,1181,2689,308,-670,-4136,200,511,1095
1067,15074,1008,2690,134,856,-3588,226,200,1236
1068,15074,1044,2691,328,-1180,-4058,184,378,1672
1069,15230,1079,2690,1134,82,-4628,87,518,712
1070,15230,1011,2690,-100,2154,-5378,-533,105,1310
1071,15612,1191,2693,-926,-542,-2780,-16,22,1392
1072,15612,970,2689,-246,-310,-4842,151,-92,936
1073,15864,1100,2691,-396,-386,-4474,255,289,281
1074,16210,1026,2691,-812,16,-2012,252,-464,830
1075,16210,1201,2690,-2190,-216,-4726,-7,-285,1328
1076,16461,1007,2690,3410,-1326,-4190,-162,273,868
1077,16461,1080,2690,1910,-502,-2788,-672,-591,1006
1078,16689,971,2691,150,202,-2594,-291,445,-199
1079,16689,1166,2691,196,1114,-3486,-153,311,555
1080,16880,978,2690,-528,1262,-3488,216,23,-96
1081,16976,1054,2690,272,-680,-3782,145,25,-615
1082,16976,1024,2690,618,-1460,-3638,191,-57,113
1083,16976,1065,2691,-616,1378,-2424,-481,136,337
1084,16976,1069,2691,-686,1238,-3886,-126,-28,54
1085,16976,1045,2690,-218,1362,-4936,155,168,-43
1086,16964,1048,2692,-218,190,-4536,132,381,102
1087,16964,1035,2691,-134,-224,-3668,174,-25,275
1088,16988,1039,2690,390,152,-3882,16,404,43
1089,16988,1141,2690,30,1052,-1914,-104,-261,538
1090,17000,978,2690,356,1306,-4512,35,-73,28
1091,17000,1045,2691,122,-570,-3824,20,154,105
1092,16988,1081,2691,-268,-1252,-3316,64,127,184
1093,17023,1068,2691,560,2456,-7570,-36,153,-270
1094,17023,1023,2692,-462,-838,-3264,-4,-168,184
1095,16964,1175,2689,-518,592,-4368,-75,127,331
1096,16964,999,2689,214,-980,-3528,-33,273,208
1097,16976,1079,2690,-258,1420,-4548,-204,311,-105
1098,16976,1164,2690,-44,-486,-3504,-146,483,-81
1099,16976,1089,2690,-542,584,-3422,19,60,361
1100,16964,1113,2691,-398,1522,-4686,38,337,382
1101,16964,1097,2690,76,-362,-4816,248,178,240
1102,17000,1126,2690,-38,54,-2976,-171,105,-246
1103,17000,1088,2690,662,378,-4050,-168,-212,-341
1104,17000,1189,2691,256,-828,-5900,158,79,387
1105,17000,1027,2690,-156,-18,-5602,129,89,334
1106,16964,1048,2690,68,560,-4078,115,161,-358
1107,16976,1116,2688,380,312,-3624,-120,-149,441
1108,16976,1054,2690,76,654,-3492,-175,117,452
1109,16964,1140,2691,-2,-1286,-3022,-236,-89,119
1110,16964,1080,2692,592,1488,-5486,19,-3,-131
1111,16976,1100,2690,250,-220,-3560,139,54,-78
1112,16976,1146,2691,148,-452,-3398,155,-349,-202
1113,16964,1079,2691,746,-46,-4128,93,-45,181
1114,16916,1089,2690,244,444,-3636,-220,41,-211
1115,16916,1178,2689,-488,-688,-2698,-168,-515,-382
1116,16904,979,2691,302,1158,-4266,-4,270,-105
1117,16904,1110,2690,-294,1630,-5290,48,400,-229
1118,16701,1118,2691,-470,1236,-4238,36,-152,-181
1119,16449,1169,2691,-1204,-106,-3358,-255,213,-46
1120,16449,1044,2690,502,-1026,-3666,-365,321,376
1121,16210,1053,2690,-44,76,-2376,-319,7,225
1122,16210,1109,2691,354,74,-4698,-110,-305,243
1123,15876,1143,2691,-366,228,-4454,132,-365,140
1124,15876,1028,2691,-1138,-968,-4574,306,-82,396
1125,15708,1094,2692,-730,-1110,-4784,-58,470,494
1126,15421,1042,2688,62,-1906,-3058,155,-692,-836
1127,15421,1075,2690,-188,426,-3752,64,-181,942
1128,15337,1047,2692,312,-82,-3444,-107,-292,-31
1129,15337,1059,2692,-1120,342,-4094,-162,-29,494
1130,15337,1089,2691,416,-1658,-3244,0,365,573
1131,15337,1146,2689,102,-392,-3460,0,848,267
1132,15349,932,2690,-396,-362,-2346,180,359,228
1133,15337,1109,2691,426,1564,-3718,-307,35,72
1134,15337,1165,2690,420,-98,-6392,-46,458,264
1135,15361,1006,2690,-254,-490,-3168,68,-91,452
1136,15361,1079,2691,38,1128,-5804,-13,295,491
1137,15421,1119,2691,250,-596,-4522,-97,22,771
1138,15421,1093,2689,-1008,1000,-5570,-113,730,759
1139,15254,1134,2690,646,18,-2692,171,-489,-175
1140,14919,1085,2691,66,1762,-4008,177,225,446
1141,14919,1092,2690,172,2092,-2460,-97,-219,175
1142,14309,1170,2690,1934,-2034,-5164,-272,318,980
1143,14309,1096,2691,-866,486,-4036,139,-225,939
1144,14010,1162,2689,-2836,-788,-4428,19,260,1269
1145,13939,1220,2689,360,1010,-5786,-10,-3,1879
1146,13939,1028,2690,-406,-536,-4150,64,-289,1708
1147,13998,1108,2690,246,-110,-3324,-123,416,1363
1148,13998,1135,2691,150,-146,-3680,235,-320,1115
1149,14345,1062,2690,140,-468,-5416,-194,131,1637
1150,14345,1104,2690,174,-1546,-4710,55,149,939
1151,15134,1081,2691,-2604,-112,-3368,29,-324,1407
1152,15852,1097,2691,1684,-424,-2510,29,527,1994
1153,15852,1031,2690,594,474,-3470,106,-152,479
1154,16533,1142,2691,1388,-882,-4262,-213,181,105
1155,16533,1026,2692,460,-278,-3688,-171,115,-196
1156,16964,1179,2689,500,2720,-4764,113,328,476
1157,16964,856,2691,126,-210,-2428,-84,-438,-211
1158,16976,1114,2692,-578,-1908,-2404,168,550,399
1159,16988,1000,2691,754,-438,-4252,300,314,66
1160,16988,1101,2691,-98,-2630,-3978,0,124,-267
1161,17000,980,2691,240,-558,-4106,-94,159,-214
1162,17000,1039,2690,-398,-1102,-2518,26,-378,-467
1163,16988,1028,2689,262,798,-3434,22,-194,40
1164,16988,1025,2690,-258,-890,-4580,-4,-86,-202
1165,16988,969,2690,-168,-1126,-5018,-191,-302,691
1166,16988,1085,2690,-450,780,-4722,22,330,-193
1167,16988,976,2691,-358,530,-4728,-13,248,134
1168,16988,1038,2690,12,-366,-4374,35,228,-279
1169,16988,955,2691,522,-1028,-3502,52,54,-821
1170,17000,935,2689,-118,-224,-3814,-171,117,-691
1171,17000,1091,2690,332,-170,-3078,-78,25,-246
1172,16988,1024,2691,472,-2258,-4066,413,-108,526
1173,17000,926,2690,154,-864,-4044,-26,-143,240
1174,17000,1115,2691,-264,1240,-3942,-239,406,140
1175,17035,986,2691,-410,1276,-4192,-36,-200,-52
1176,17035,978,2688,242,-220,-3240,219,-371,-467
1177,17035,997,2690,640,-406,-4824,410,372,-202
1178,16988,1012,2690,-100,1116,-5046,132,-226,-181
1179,16988,1005,2689,430,1624,-5028,-197,42,60
1180,16976,1001,2690,-10,-376,-3198,226,67,-13
1181,16976,975,2688,266,1852,-4448,93,-232,-349
1182,16904,1081,2691,258,392,-3778,-26,448,-305
1183,16904,1026,2690,2,890,-4810,319,-111,-72
1184,16808,1026,2689,750,12,-4898,235,60,-320
1185,16569,984,2691,680,-1492,-4628,155,-651,-582
1186,16569,1093,2690,144,1482,-3882,-413,-241,-16
1187,16198,1040,2690,-1144,1040,-3334,55,-197,-226
1188,16198,1135,2691,644,-658,-2816,106,-222,-10
1189,15876,984,2692,1284,608,-4470,-17,-350,13
1190,15876,1034,2691,-958,1018,-3552,0,-184,-58
1191,15708,1080,2690,-1162,-150,-4288,55,38,122
1192,15529,1184,2689,-228,-1502,-3364,113,-143,609
1193,15529,960,2691,-450,552,-3122,288,140,240
1194,15337,1114,2690,646,-408,-3400,161,-136,225
1195,15337,1090,2691,-444,-74,-3372,213,-261,774
1196,15337,1138,2691,-1062,856,-5100,116,-276,1245
1197,15337,1010,2689,-802,1204,-4588,184,-333,703
1198,15302,991,2691,-336,1422,-3010,277,-153,326
1199,15230,1052,2690,-216,-86,-3778,-133,-340,491
1200,15230,1046,2690,-366,-444,-3014,219,350,385
1201,15122,1074,2691,-502,534,-4602,335,136,482
1202,15122,1035,2691,-1176,540,-4398,38,400,517
1203,15074,1075,2691,-780,1788,-3910,-136,438,535
1204,14943,1063,2689,294,666,-3582,-13,362,361
1205,14943,1084,2688,92,158,-3548,-39,-73,379
1206,14919,1079,2690,-316,1876,-2802,-117,127,547
1207,14919,1084,2690,440,1538,-2936,155,175,741
1208,14716,1104,2689,-284,-272,-4010,164,-108,535
1209,14716,1016,2690,-240,-222,-4928,-13,-311,1068
1210,14716,1103,2691,-634,-652,-5022,-117,235,868
1211,14811,1095,2690,-18,-28,-5210,-181,334,942
1212,14811,1121,2689,-320,-1122,-3228,-204,-73,709
1213,15134,1089,2691,294,-504,-2728,-100,317,662
1214,15134,1147,2690,-1062,894,-2916,-171,277,1151
1215,15230,1069,2690,344,-644,-4682,216,-6,853
1216,15230,1136,2691,-432,-1132,-6056,87,171,874
1217,15636,1103,2690,-600,-666,-4114,177,-123,1596
1218,15768,1104,2690,1026,-1996,-3340,-26,-149,750
1219,15768,1123,2690,1040,-580,-3226,-159,-374,1074
1220,15959,1164,2691,-456,422,-3214,-197,311,614
1221,15959,1121,2691,-198,-488,-3584,264,-400,352
1222,16186,1070,2691,-546,-1352,-5258,223,-320,959
1223,16186,1078,2691,468,-858,-4006,217,-3,119
1224,16306,1080,2691,-74,-832,-3696,-20,6,228
1225,16426,1111,2691,-378,-1048,-3222,67,54,78
1226,16426,1065,2691,-716,-562,-512,190,352,777
1227,16449,1159,2691,304,-1082,-2512,171,127,676
1228,16449,1017,2689,-56,388,-4708,13,302,570
1229,16509,1111,2691,52,-570,-3252,-29,-407,417
1230,16509,1093,2691,-168,-430,-5462,-16,187,620
1231,16557,1115,2691,-604,-690,-4378,9,-120,591
1232,16736,1068,2690,34,-934,-2822,210,162,249
1233,16736,1076,2691,-492,1428,-3432,-4,194,461
1234,16808,1106,2691,-452,-1080,-3050,48,267,-5
1235,16808,1086,2690,316,150,-4438,-110,-460,163
1236,16820,1103,2690,456,116,-3796,77,-257,-178
1237,16880,1113,2691,-340,2278,-4888,-252,-194,166
1238,16880,1219,2690,-294,548,-4302,19,219,225
1239,16964,1081,2689,-482,176,-2574,381,368,273
1240,16964,1119,2691,-702,1042,-4248,26,336,638
1241,16976,1070,2690,408,216,-4988,16,124,-55
1242,16976,1183,2690,292,102,-5366,228,-242,-37
1243,16976,1045,2690,-404,1374,-4410,-188,79,-311
1244,16964,1210,2692,106,2154,-5282,36,-9,31
1245,16964,971,2689,92,-214,-2356,245,-3,7
1246,16976,1052,2690,518,1630,-2746,38,-134,113
1247,16976,1059,2691,-632,-586,-3988,116,241,72
1248,16976,1209,2692,-260,-68,-5292,151,-419,-231
1249,16976,947,2691,-412,474,-4482,-142,-235,54
1250,16964,1124,2690,248,364,-4636,-78,222,49
1251,16964,1076,2692,-282,132,-5310,-149,-10,116
1252,16964,1200,2690,-174,-356,-3532,142,451,19
1253,16976,972,2691,170,634,-4518,326,-89,196
1254,16976,1082,2692,726,468,-4996,148,226,49
1255,16964,1060,2692,-214,-692,-4614,-149,60,-16
1256,16964,1030,2690,542,1510,-4502,-142,-28,-137
1257,16976,1102,2689,-468,-316,-3406,-49,-76,-311
1258,16976,1051,2692,544,-516,-2630,174,-359,-52
1259,16976,1075,2691,242,-866,-5028,93,171,-364
1260,16892,1048,2690,136,-870,-3354,129,292,-429
1261,16892,1075,2690,-192,204,-4408,132,28,-214
1262,16641,1027,2689,258,252,-4058,38,229,-205
1263,16641,1044,2691,-50,136,-3920,-119,788,25
1264,16282,1008,2689,1146,54,-4740,26,270,-691
1265,15959,1197,2689,272,374,-4592,-91,-295,4
1266,15959,1057,2691,1076,-442,-3438,113,-299,-806
1267,15756,1062,2690,-668,-564,-2820,135,-574,-603
1268,15756,1069,2691,-222,-346,-3026,313,165,609
1269,15828,1020,2689,-308,1520,-4414,97,-425,382
1270,15840,1049,2690,-172,88,-2962,-207,-22,234
1271,15840,1023,2691,-512,-536,-2304,67,435,228
1272,15732,1115,2690,-22,132,-3740,-46,1057,166
1273,15732,996,2691,-176,72,-4720,255,96,10
1274,15684,1077,2691,-238,1124,-5160,97,775,149
1275,15684,1148,2689,248,166,-3540,-171,457,-90
1276,15541,952,2689,118,-174,-1862,-249,-320,178
1277,15397,1059,2691,-694,-1586,-1704,119,-352,93
1278,15397,1052,2690,-390,148,-4642,87,568,54
1279,15361,1097,2690,-1030,218,-4352,183,57,1057
1280,15361,959,2692,48,-1042,-5252,-410,331,1534
1281,15373,978,2690,530,974,-5254,-207,-54,81
1282,15373,1018,2691,-710,-358,-2752,-65,159,99
1283,15254,1096,2691,266,-906,-3376,-36,-57,385
1284,15122,900,2690,-326,1978,-3904,-197,-126,455
1285,15122,1068,2690,798,652,-4648,-62,-73,523
1286,15003,1038,2690,-222,-1104,-5348,-84,-51,1171
1287,15003,1006,2690,184,-1278,-4936,-16,198,1369
1288,14931,989,2691,-394,-748,-3672,48,41,435
1289,14931,1042,2691,110,-1126,-2754,-7,-165,635
1290,14931,1017,2691,-456,20,-3924,229,213,426
1291,14991,1122,2690,-264,1348,-3684,132,-76,803
1292,14991,993,2691,-264,44,-5804,-16,-41,712
1293,15062,966,2690,-2,-932,-4458,-181,115,647
1294,15062,1027,2689,-974,872,-3808,-191,-57,479
1295,15074,1105,2689,-876,486,-3654,109,-155,441
1296,15110,928,2691,-1110,228,-3194,97,331,485
1297,15110,1004,2692,-50,494,-4856,-188,381,152
1298,15098,1045,2689,-588,596,-4944,-323,79,511
1299,15098,1026,2691,-194,-156,-4132,-87,-45,750
1300,15122,1057,2692,60,584,-3422,-13,-22,532
1301,15122,1004,2691,-184,-296,-2734,216,-99,499
1302,15098,1038,2690,-50,-1788,-2846,-136,-19,620
1303,15110,1037,2692,-282,-56,-4544,-39,92,417
1304,15110,1016,2691,150,146,-5396,226,248,756
1305,15110,1028,2689,-664,856,-2900,-81,-26,880
1306,15110,1049,2689,572,-2020,-3196,216,98,723
1307,15110,976,2691,-204,2108,-2554,-23,-146,665
1308,15110,1088,2690,-160,-10,-3144,-191,-67,555
1309,15110,986,2692,230,744,-3866,-81,-292,950
1310,15110,1059,2690,-296,-550,-3094,-162,-29,441
1311,15110,1031,2690,-710,-2052,-2802,226,165,723
1312,15146,1042,2690,-86,-340,-4766,184,-57,499
1313,15146,1054,2691,-258,482,-4922,-174,35,175
1314,15170,1025,2689,-44,492,-3782,-20,365,803
1315,15170,1021,2690,130,482,-4074,-71,378,830
1316,15337,1136,2689,-402,-1410,-2952,-275,178,520
1317,15361,994,2691,-150,-38,-4884,-162,-111,579
1318,15361,1053,2691,400,1532,-5158,-346,-140,753
1319,15361,1027,2689,-372,820,-3322,122,140,529
1320,15361,1014,2691,194,478,-4644,22,171,479
1321,15373,1029,2690,-748,1080,-4436,-126,98,871
1322,15373,938,2691,-396,662,-4146,-259,185,980
1323,15361,1143,2689,-312,-1092,-3190,-106,483,1151
1324,15373,998,2691,170,1242,-4032,-159,172,995
1325,15373,1090,2689,310,690,-4496,190,95,1036
1326,15373,1153,2690,-130,874,-5506,155,35,936
1327,15373,942,2692,6,116,-5032,116,-320,791
1328,15385,1071,2692,-334,300,-5058,-252,308,700
1329,15601,1068,2692,-942,190,-3124,23,-225,1048
1330,15601,1139,2689,294,686,-5022,51,92,791
1331,15708,962,2690,-1000,-1756,-3974,58,-248,830
1332,15708,1044,2691,-430,-448,-3820,100,-127,588
1333,15720,1067,2691,1036,10,-5228,122,-149,84
1334,15720,1134,2691,74,1108,-3480,193,146,329
1335,15684,979,2689,-162,-394,-3988,-126,-318,697
1336,15541,1069,2690,-488,-150,-4524,-130,3,824
1337,15541,1016,2690,-682,-1374,-3940,32,-311,933
1338,15361,1130,2689,-754,304,-4216,-7,425,644
1339,15361,1030,2691,-54,-42,-1730,93,64,49
1340,15230,1022,2690,476,-824,-4650,103,375,759
1341,15230,988,2692,192,-2862,-3892,-39,-537,1286
1342,15122,1129,2690,-94,454,-5016,58,114,889
1343,15146,963,2690,-120,290,-4066,-113,156,779
1344,15146,1042,2690,-536,-300,-3668,87,293,1163
1345,15146,1015,2691,-58,230,-4458,126,-324,732
1346,15146,1021,2691,-992,-568,-3410,264,101,470
1347,15146,1001,2691,-402,-988,-3892,-291,537,382
1348,15146,1003,2689,-148,-394,-4026,-468,273,261
1349,15146,1019,2690,584,140,-3584,113,-178,573
1350,15134,1036,2690,1020,-2010,-3784,297,105,582
1351,15134,1107,2693,-968,164,-2584,290,-149,697
1352,15182,986,2690,50,1742,-4992,-94,-295,859
1353,15182,1009,2689,-514,-1638,-3718,-35,483,759
1354,15242,976,2691,266,932,-4624,26,-9,499
1355,15636,1046,2691,-824,712,-3640,-148,-40,249
1356,15636,993,2691,436,1072,-5574,-120,562,579
1357,15756,1004,2690,-454,282,-4354,-304,-165,570
1358,15756,1017,2691,-580,1804,-1820,-246,-137,753
1359,15852,1129,2690,94,106,-3732,-152,-86,591
1360,15852,1020,2691,292,-1430,-3520,219,-254,800
1361,16055,1022,2690,288,-1734,-5432,9,225,694
1362,16186,1069,2690,-684,832,-4788,-223,-315,782
1363,16186,1009,2690,-542,618,-3562,-152,524,172
1364,16210,1043,2691,40,16,-3780,97,251,376
1365,16210,1129,2689,-454,-618,-3660,42,48,532
1366,16354,896,2690,106,-578,-4442,29,-124,564
1367,16354,1092,2690,110,-950,-3034,100,366,211
1368,16497,1080,2690,584,-258,-4184,0,-92,110
1369,16641,967,2690,692,-494,-3996,193,317,968
1370,16641,983,2690,-456,-1180,-2540,93,-64,234
1371,16701,1140,2691,-2,-640,-3046,29,194,-721
1372,16701,1034,2691,-312,-706,-2826,13,404,-19
1373,16689,1028,2691,-236,960,-4960,-97,115,482
1374,16689,977,2691,46,82,-3740,-52,152,-43
1375,16701,1141,2692,260,352,-5526,232,9,-435
1376,16689,976,2690,694,188,-3856,203,-156,-346
1377,16689,1055,2691,30,400,-2542,13,-248,-63
1378,16736,1016,2689,292,304,-4674,190,-200,40
1379,16736,1058,2690,8,-20,-3536,-133,206,131
1380,16760,1052,2690,-234,-40,-3644,142,-22,90
1381,16808,1012,2689,-1108,-672,-2828,361,26,788
1382,16808,1046,2691,576,-900,-4156,3,73,-161
1383,16808,1076,2690,-462,354,-3696,-381,4,-119
1384,16808,1091,2690,-156,796,-4100,-275,19,-399
1385,16796,1165,2691,1730,-940,-6148,84,124,-299
1386,16796,956,2690,-174,238,-4260,274,101,-473
1387,16808,1057,2691,184,684,-4792,178,-92,-461
1388,16904,1090,2690,132,-370,-3944,71,-153,-320
1389,16904,1153,2689,-558,1070,-5354,-171,70,311
1390,17000,990,2690,142,-1408,-2542,-139,-305,-326
1391,17000,992,2689,58,318,-4230,213,-22,-211
1392,16964,1078,2690,-76,-578,-3936,148,124,-470
1393,16964,1108,2692,-254,-876,-5250,126,-441,258
1394,16976,900,2690,350,-1278,-4068,-100,371,-231
1395,16964,1056,2689,-42,730,-4330,-394,95,-93
1396,16964,1012,2691,-216,422,-2716,-259,-57,19
1397,16976,1120,2692,-194,-66,-4138,-162,140,161
1398,16976,941,2690,996,-380,-3742,158,-143,-258
1399,16976,1034,2690,288,-12,-3632,352,-438,-349
1400,16976,1027,2690,-390,-780,-5000,106,-565,-735
1401,16964,1034,2691,-766,-1546,-4046,-230,-57,-290
1402,17000,1082,2688,2,1678,-4932,-71,146,116
1403,17000,886,2689,-148,-42,-2222,-4,331,-544
1404,16988,1000,2691,510,46,-3840,-42,-264,-364
1405,16988,1143,2691,518,1472,-4312,-213,-257,-494
1406,16988,929,2690,130,-682,-4550,-145,108,-447
1407,16988,950,2690,56,658,-3476,36,-18,-202
1408,16988,1077,2691,482,-246,-3988,-113,92,69
1409,16988,1046,2690,170,936,-4346,-175,-505,-196
1410,16988,1039,2691,-192,-1042,-4206,-107,-133,54
1411,16988,1015,2691,-728,-30,-2252,84,-213,-149
1412,16988,1067,2691,-326,1480,-3426,332,175,19
1413,17047,1012,2690,16,-1148,-4094,67,476,63
1414,17047,1020,2691,-158,562,-3962,6,-172,-114
1415,17047,1008,2691,-482,-434,-2686,-97,302,161
1416,17047,1032,2690,4,106,-3952,216,10,225
1417,17047,984,2691,-202,426,-3904,103,108,-173
1418,17047,1045,2690,-572,1126,-4710,109,273,-96
1419,17047,982,2690,138,196,-4358,-10,6,275
1420,17047,1060,2691,-494,-1394,-3584,-4,-146,281
1421,17047,1004,2690,190,122,-4038,-91,190,-31
1422,17047,1068,2691,-142,-672,-4428,-107,178,-193
1423,17047,995,2689,-344,152,-3628,61,-13,-267
1424,17047,1024,2690,350,-394,-2990,-4,-406,-338
1425,17047,996,2690,250,494,-3986,20,-155,-273
1426,17047,1080,2691,-32,1936,-3944,-75,95,-240
1427,17047,1032,2690,-130,-1262,-2642,355,283,-49
1428,17047,1004,2690,180,-624,-4498,222,-155,-311
1429,17047,994,2691,-50,-34,-3814,-336,-241,-178
1430,17035,1095,2692,-252,-458,-4008,129,-168,-81
1431,17035,1033,2690,238,1538,-3316,177,172,-140
1432,17047,1031,2689,-834,-938,-2830,129,-50,78
1433,17047,1017,2691,244,76,-4402,-75,-174,-13
1434,17047,1106,2690,-770,-190,-4320,-175,-26,107
1435,17000,1063,2690,-186,118,-3304,6,166,-352
1436,17000,1020,2689,-404,386,-3442,186,-7,37
1437,16976,1036,2690,-480,1240,-3218,-78,187,-329
1438,16976,1126,2690,-666,-478,-3570,-284,-766,113
1439,16976,1066,2691,538,14,-2924,-133,76,399
1440,16964,1051,2690,1036,556,-4070,-58,-9,429
1441,16964,1037,2690,-266,636,-5244,-104,-50,255
1442,16964,1047,2691,342,-330,-3798,161,-16,228
1443,16964,1127,2692,-64,-406,-4492,51,406,119
1444,16964,966,2689,-36,-770,-3506,-104,63,217
1445,16964,1092,2692,-322,242,-3284,129,-724,105
1446,16976,1052,2691,94,-610,-5438,-65,60,255
1447,17000,1117,2690,-250,566,-3594,-94,-305,-128
1448,17000,1067,2690,1526,1246,-5692,-87,229,184
1449,17047,1152,2691,590,-1456,-3362,13,489,635
1450,17047,1024,2690,400,570,-2822,48,-64,252
1451,17035,1119,2691,-56,-410,-4368,-320,143,308
1452,17035,1047,2690,342,-1344,-2808,151,-127,-532
1453,17035,1090,2691,666,-1056,-4298,0,324,-311
1454,17035,1050,2691,14,-64,-4698,42,-267,308
1455,17035,1075,2690,574,518,-4098,226,-124,517
1456,17047,1000,2690,-362,1472,-3986,-36,257,63
1457,17047,1162,2691,-822,-192,-2956,-259,-378,51
1458,17047,1074,2692,270,760,-2192,-162,254,402
1459,17047,1059,2690,-202,862,-4126,-16,127,34
1460,17035,1029,2691,-336,-506,-3444,184,89,-49
1461,17047,1143,2693,708,554,-5722,116,115,-173
1462,17047,1043,2690,-56,-866,-3910,-81,-6,46
1463,17047,1065,2690,476,234,-3752,-310,-54,116
1464,17047,1033,2689,460,254,-5142,-10,-222,-13
1465,16988,1125,2691,-962,586,-5980,135,-165,237
1466,16988,1085,2692,-16,664,-3708,342,-219,-93
1467,16988,1173,2690,-486,92,-3124,58,124,169
1468,17000,991,2690,22,-1046,-3446,235,61,-114
1469,17000,1071,2692,-714,-1192,-2736,326,-57,110
1470,16988,1090,2691,728,1212,-5370,93,140,102
1471,16988,1056,2690,-282,-124,-2622,-217,47,175
1472,16988,1111,2690,74,-278,-3126,158,-146,-66
1473,16988,1087,2691,704,1204,-4340,316,0,43
1474,16988,1074,2692,592,-676,-3022,190,-38,-320
1475,17047,1088,2691,-196,-1772,-4244,-323,63,105
1476,17047,1101,2690,-202,390,-5546,-272,378,-429
1477,17035,1107,2691,324,108,-4674,-249,371,105
1478,17035,1108,2690,732,4752,-3626,-307,-114,-93
1479,17035,1207,2690,-1060,1124,-4430,26,213,-111
1480,17035,1100,2691,-692,-194,-4506,442,492,110
1481,17035,1017,2689,560,-410,-4660,-187,-165,-114
1482,17035,1211,2689,-648,-704,-4224,-259,-292,-31
1483,17035,1067,2690,622,1084,-3898,113,42,69
1484,17035,1091,2689,-866,150,-3030,-3,42,125
1485,17035,1173,2690,134,700,-3598,300,-57,-87
1486,17047,1041,2690,-288,-1326,-3720,-20,315,-323
1487,17035,1155,2690,-478,1098,-4384,-120,51,-81
1488,17035,1089,2689,-262,-698,-3428,16,223,75
1489,17035,1088,2691,392,-1338,-3150,161,-511,-72
1490,17035,1008,2689,8,-414,-3706,87,-184,-175
1491,17035,1069,2690,118,362,-2916,155,-295,219
1492,17035,1071,2691,-220,1504,-3758,-149,175,57
1493,17047,1194,2689,58,840,-4428,-265,-228,-270
1494,17035,1032,2690,-526,-136,-2450,-159,207,812
1495,17035,1098,2691,36,110,-3796,-46,112,-155
1496,17035,1060,2690,-222,962,-3336,142,23,-1139
1497,17035,1041,2690,-290,320,-3788,-55,420,-202
1498,17035,1025,2690,230,-566,-2044,-162,95,-202
1499,16988,1098,2689,256,366,-2516,-275,-387,-600
1500,16988,1106,2691,-426,2576,-4940,-536,298,2268
1501,16988,1119,2690,100,-224,-3412,106,-9,-615
1502,16988,1164,2690,306,832,-4572,-94,67,-279
1503,16988,1051,2689,-316,382,-4692,-330,-165,-258
1504,16988,1098,2690,-66,-1686,-2286,-136,-1115,-379
1505,17000,1102,2690,64,378,-1858,-65,-442,-467
1506,17023,1129,2691,-826,-1206,-4480,93,587,-22
1507,17023,1047,2691,-176,832,-4188,-129,-156,-323
1508,17000,1178,2689,-98,-356,-4366,6,226,532
1509,17000,1035,2690,824,-362,-3402,310,-120,-302
1510,17000,1077,2690,546,-788,-3584,264,-207,-452
1511,17000,1060,2692,1066,-828,-6758,155,385,-942
1512,16988,1073,2690,984,404,-5822,-153,-163,-452
1513,16964,1061,2690,84,-742,-4416,-6,112,-429
1514,16964,1070,2691,462,-746,-3204,29,-95,-559
1515,16976,1042,2690,768,642,-2888,184,-282,-55
1516,16976,1058,2689,-50,-1398,-1912,35,457,-117
1517,16964,1082,2690,-40,748,-3594,-349,390,-187
1518,16964,1082,2690,426,1706,-5056,-139,-429,-497
1519,16976,1088,2690,646,-664,-1394,197,-19,-234
1520,16976,1170,2690,-196,2464,-4496,277,-92,214
1521,16976,1089,2691,274,-1534,-3078,478,-848,-2
1522,16964,1011,2690,194,-220,-3428,90,155,-164
1523,16964,1227,2690,-224,-118,-3822,-200,185,-46
1524,16964,1181,2690,-84,862,-6334,-159,-231,-270
1525,16964,1019,2689,204,886,-4022,206,-57,-220
1526,16976,1152,2691,610,120,-4308,193,61,-72
1527,16976,1124,2690,208,-1494,-3988,139,381,-167
1528,16976,1134,2691,222,420,-3514,-126,-406,161
1529,16964,1115,2692,-284,-448,-2602,-252,-232,-2
1530,16964,1217,2689,-126,-780,-1516,97,-552,-175
1531,16976,1007,2690,274,-1568,-3588,58,651,-358
1532,16976,1137,2690,668,-1196,-3784,-13,114,-538
1533,16976,1112,2691,26,-800,-4990,-103,372,-444
1534,16976,1109,2690,230,-86,-3206,158,394,234
1535,16976,1104,2691,592,328,-3342,229,-22,-349
1536,16964,1109,2690,34,-1042,-3090,303,213,-385
1537,16964,1071,2690,-476,-1540,-2774,374,-222,-597
1538,16964,1054,2691,36,-444,-6128,-10,-327,-706
1539,17000,1106,2690,-228,94,-3354,-416,728,-361
1540,17000,1091,2689,56,362,-2584,-574,397,-75
1541,16988,1088,2690,488,-970,-5926,-391,349,125
1542,16988,1036,2692,508,-1676,-2936,861,180,-877
1543,16964,1156,2691,392,292,-4126,406,-98,158
1544,16964,1074,2690,-532,-334,-3876,6,-64,-237
1545,16976,1218,2690,410,-300,-2106,-485,178,-293
1546,16916,931,2689,-596,1410,-3946,-33,38,-199
1547,16916,1100,2689,690,-566,-2790,103,-362,16
1548,16808,1087,2690,432,794,-7252,129,-349,-10
1549,16808,1072,2690,272,-44,-3688,-29,-470,163
1550,16689,1174,2691,-576,-438,-2034,-171,-241,-234
1551,16689,1101,2689,110,-752,-2794,-168,235,16
1552,16545,1081,2689,26,-48,-4984,113,-174,603
1553,16234,1012,2690,-582,-100,-3546,58,101,93
1554,16234,1041,2692,-134,-750,-4240,206,-70,149
1555,15935,1110,2691,-568,-274,-3658,100,51,-246
1556,15935,1058,2690,248,-2056,-4402,-55,-207,134
1557,15756,1063,2691,-690,-512,-3430,-252,57,31
1558,15708,1123,2689,-846,622,-2680,-175,-156,417
1559,15708,1084,2690,-266,1644,-5858,93,-210,871
1560,15696,1133,2691,-800,-198,-6228,242,273,971
1561,15696,910,2691,-286,-418,-3638,9,210,868
1562,15696,1161,2691,-176,868,-4154,313,-76,287
1563,15696,996,2691,-616,-1024,-3460,71,-260,585
1564,15720,1200,2691,-560,1352,-3458,168,-19,488
1565,15708,1027,2689,-34,-70,-3684,190,626,499
1566,15708,1115,2690,-320,1174,-4590,-149,-327,611
1567,15744,1133,2690,-788,-1030,-2240,0,232,665
1568,15744,1128,2691,376,486,-5620,-142,-368,738
1569,15744,1199,2689,42,1794,-3704,-543,152,900
1570,15744,1162,2691,-506,26,-4680,-87,404,824
1571,15720,1168,2689,460,2122,-4112,-78,35,505
1572,15720,1210,2692,330,-1114,-3588,217,-16,903
1573,15720,1157,2691,-314,-436,-3888,-13,-359,709
1574,15684,1199,2690,968,-280,-4802,-359,168,650
1575,15684,1129,2690,64,108,-2636,-29,-149,744
1576,15612,1220,2690,-888,-302,-2740,-23,464,729
1577,15612,1152,2691,324,-40,-5046,126,295,255
1578,15624,1169,2691,-230,-296,-3690,368,-134,555
1579,15684,1077,2689,140,-330,-2580,97,356,623
1580,15684,1132,2689,532,-900,-2516,-23,121,953
1581,15864,1124,2692,-28,-1200,-3994,3,-12,376
1582,15864,1179,2690,502,852,-4834,-239,-79,1030
1583,16390,1331,2691,-604,32,-2006,-239,-101,243
1584,16390,1088,2691,-642,196,-3706,180,108,-341
1585,16976,1297,2690,-548,-1076,-4350,193,639,81
1586,16988,953,2690,1348,-740,-3794,-188,880,163
1587,16988,1156,2691,590,794,-5076,-161,1,-447
1588,17000,1105,2691,724,-1706,-3280,80,-111,-447
1589,17000,1191,2691,-1214,1780,-2068,26,86,131
1590,17000,1312,2689,206,462,-4476,-220,343,-341
1591,16988,1112,2690,-324,1268,-4654,-13,-70,-58
1592,16988,1134,2690,112,370,-5188,-55,-216,-287
1593,16988,1198,2690,28,10,-3492,80,-207,-423
1594,16988,1103,2690,-578,-1074,-1622,20,-183,-128
1595,16964,1170,2691,474,716,-3398,-278,-337,57
1596,16964,1134,2689,-286,-842,-1748,-46,209,143
1597,16964,1226,2690,46,346,-6216,-346,308,-90
1598,16976,1135,2692,-686,188,-2372,299,-452,-570
1599,16976,1152,2690,-1026,-784,-2752,361,498,-102
1600,16976,1075,2689,-36,268,-3188,368,92,-187
1601,16976,1154,2691,684,-844,-4114,387,105,-338
1602,16916,1285,2690,256,684,-4768,26,64,-90
1603,16916,1059,2690,330,-128,-4548,-52,-416,-149
1604,16689,1168,2690,-280,1864,-4076,-13,296,-84
1605,16414,1143,2690,-22,0,-3620,9,38,-355
1606,16414,1141,2690,274,-2086,-3904,180,394,-432
1607,16174,1201,2690,430,32,-2830,142,-587,-276
1608,16174,1152,2691,-572,-274,-4978,-246,-76,-237
1609,15959,1213,2690,448,-566,-3864,-181,540,-99
1610,15959,1148,2688,-22,196,-4992,316,-92,-119
1611,15852,1186,2691,-136,-1262,-3162,177,-19,305
1612,15732,1125,2692,78,-792,-3912,13,-266,-96
1613,15732,1140,2691,-406,998,-3962,-146,-394,75
1614,15720,1174,2690,456,-700,-3302,-126,-336,-370
1615,15720,1149,2691,-292,-952,-4846,35,16,379
1616,15505,1204,2690,-296,-1590,-4896,119,244,134
1617,15122,1131,2691,686,770,-4854,-58,235,449
1618,15122,1229,2690,-918,1010,-3008,-462,-248,-10
1619,14931,1169,2690,122,-312,-1944,-55,150,13
1620,14931,1158,2690,-592,-1742,-3368,268,-108,847
1621,14716,1207,2691,-1188,-906,-2258,358,83,-149
1622,14716,1127,2690,1842,820,-3594,22,131,-494
1623,14680,1226,2691,-3730,1080,-4124,-300,-368,81
1624,14608,1106,2689,-1566,-38,-4622,-62,378,894
1625,14608,1191,2688,-250,710,-3344,-165,-48,685
1626,14536,1143,2690,292,-2324,-2334,239,-178,709
1627,14536,1185,2691,-854,80,-6078,97,-753,184
1628,14333,1105,2691,508,-130,-4458,-68,508,800
1629,14333,1162,2690,-466,-130,-2330,-16,-73,405
1630,14118,1177,2690,752,-1614,-4806,71,515,491
1631,14070,1097,2691,-1778,2128,-4000,158,-13,46
1632,14070,1234,2690,558,1076,-3904,81,77,959
1633,14010,1061,2690,-4,1210,-3848,45,-301,1357
1634,14010,1176,2691,-926,1390,-4954,-272,533,3638
1635,13962,1007,2691,-536,796,-3132,-336,137,600
1636,13962,1227,2690,-266,1204,-2874,-420,-98,741
1637,13879,1106,2690,-498,-512,-4258,2,-541,821
1638,13699,1212,2692,-1246,-4,-4496,84,-266,1057
1639,13699,1052,2690,-300,-772,-3668,194,273,1074
1640,13508,1118,2691,-356,766,-4940,-146,115,1275
1641,13508,1177,2691,592,2028,-7240,-630,207,1313
1642,13257,1088,2690,-124,1218,-1844,-223,-553,983
1643,13257,1229,2691,220,-12,-4542,200,-197,1381
1644,13149,1049,2692,-662,-470,-4032,249,-336,1546
1645,13078,1231,2689,88,80,-3698,-20,597,606
1646,13078,1007,2688,-778,-800,-3492,-336,-244,1634
1647,13018,1123,2690,190,-448,-3606,-16,73,1779
1648,13018,1200,2690,-822,1764,-5700,168,114,1755
1649,12922,1153,2689,1126,152,-6558,264,60,1655
1650,12779,1209,2691,-436,1964,-6548,-236,-200,2026
1651,12779,1164,2689,-460,-36,-4070,-33,369,1961
1652,12468,1148,2690,680,1908,-4442,264,-73,1531
1653,12468,1189,2689,-512,-1322,-3642,203,359,1979
1654,12360,1125,2691,-942,2178,-3134,64,204,1802
1655,12360,1158,2690,-426,1494,-5242,-87,-238,1826
1656,12276,1154,2689,610,-1650,-4374,62,-784,1720
1657,12265,1205,2691,-1272,1184,-4228,-178,-406,1634
1658,12265,1166,2691,-1364,-2280,-2802,106,131,1899
1659,12276,1135,2691,-86,-2016,-5924,300,-734,3302
1660,12276,1163,2690,-922,-940,-2950,38,413,2707
1661,12276,1170,2690,972,-48,-3670,-220,225,2828
1662,12276,1142,2691,-514,1804,-5340,64,216,2062
1663,12480,1052,2693,296,28,-4826,110,80,2940
1664,12611,1015,2691,-198,-1834,-4502,222,44,2389
1665,12611,1115,2690,-636,-96,-4508,84,-130,2191
1666,12611,1088,2691,-232,8,-5044,377,-38,3084
1667,12611,1100,2691,-398,116,-3440,90,-3,2176
1668,12599,1187,2691,142,730,-4960,142,531,2530
1669,12599,1076,2690,-594,502,-5100,232,248,2297
1670,12599,1098,2691,38,-1630,-2252,32,448,2135
1671,12587,1058,2691,1088,-594,-4294,-275,375,1490
1672,12587,1140,2689,296,-1890,-3276,-191,175,2377
1673,12599,1050,2690,-576,558,-4758,61,337,2221
1674,12599,1202,2691,-344,1250,-4044,126,-66,2321
1675,12599,1074,2691,-232,-1188,-4336,-123,137,2274
1676,12587,1092,2691,-300,350,-4224,-152,299,2250
1677,12587,1058,2691,530,274,-2786,16,-470,1658
1678,12695,1108,2691,-170,-842,-3594,13,-279,2288
1679,12695,1052,2689,486,-48,-5526,-10,121,2029
1680,12791,1169,2690,-646,1372,-4762,-152,356,1555
1681,12791,987,2690,-1354,-636,-490,32,308,1566
1682,12898,1054,2690,94,360,-4494,235,-263,2079
1683,13161,1191,2690,-130,1148,-3798,35,-363,1908
1684,13161,1011,2690,-126,-54,-3950,-152,137,1817
1685,13508,1060,2690,134,1196,-4082,67,112,3067
1686,13508,1060,2691,102,294,-3860,22,-381,2250
1687,13783,1100,2691,-1246,586,-4914,-181,-51,2474
1688,13783,1097,2690,782,-648,-3190,19,61,1779
1689,14058,1166,2690,-366,1704,-5816,-87,29,1646
1690,14405,1029,2692,694,-1682,-4230,258,270,1207
1691,14405,1077,2691,-42,782,-5810,193,540,1516
1692,14656,1125,2690,932,-770,-3134,-123,-197,1814
1693,14656,1118,2690,702,152,-5244,-197,343,1425
1694,14752,1149,2690,-36,282,-2868,206,-140,547
1695,14752,1120,2691,-70,462,-5530,132,57,1001
1696,14775,1122,2692,-1482,688,-1894,-129,546,429
1697,14716,1074,2689,198,-1552,-4134,81,207,1057
1698,14716,1105,2689,-138,604,-3736,-213,229,1207
1699,14704,1114,2691,-536,822,-4584,-29,-324,1195
1700,14704,1176,2690,650,-700,-2756,142,28,676
1701,14680,951,2690,-444,-1170,-4286,-4,-289,479
1702,14680,1114,2691,166,-246,-5150,97,136,1003
1703,14692,1101,2690,-438,-366,-3940,184,-70,1092
1704,14704,1058,2692,-26,-652,-3672,-117,283,37
1705,14704,1171,2690,264,-976,-3100,-104,-447,788
1706,14775,1060,2689,-578,-844,-4582,228,253,1133
1707,14775,1106,2690,-54,898,-6004,119,70,1920
1708,15003,1039,2690,-514,-348,-4156,229,102,835
1709,15074,1082,2690,734,298,-3898,-146,67,833
1710,15074,1098,2690,-258,-1104,-2966,-100,-355,638
1711,15242,1086,2690,-824,-2544,-2692,264,175,538
1712,15242,1067,2690,-16,420,-4512,148,232,688
1713,15696,1094,2690,-334,-2,-3290,-271,-143,777
1714,15696,1133,2691,686,-736,-4640,-113,406,1157
1715,15756,1181,2690,312,1490,-5258,-100,-384,1643
1716,15756,1033,2690,-48,-742,-3622,-39,-3,623
1717,15756,1058,2692,136,-1490,-3324,203,-349,81
1718,15768,1115,2690,898,-334,-5132,187,115,299
1719,15768,1082,2689,-424,-548,-3104,-42,-105,535
1720,15744,1122,2690,608,-800,-3250,-48,131,458
1721,15744,991,2689,-358,-118,-3300,51,162,390
1722,15696,1082,2691,956,-2164,-1696,-20,6,603
1723,15636,1118,2690,-432,-998,-4002,122,-648,488
1724,15636,1185,2689,-316,-484,-3198,177,136,550
1725,15541,1018,2690,366,-416,-4698,20,121,529
1726,15541,1106,2690,314,-632,-2510,22,133,405
1727,15589,1107,2691,268,2048,-5508,135,7,523
1728,15589,1086,2690,-422,-932,-3788,-110,-441,647
1729,15744,1137,2691,-298,-22,-4374,-388,-156,794
1730,15852,1095,2691,470,2242,-5396,-75,-28,373
1731,15852,1036,2690,-290,-114,-3814,10,45,364
1732,16174,1117,2689,-764,222,-3494,190,-292,470
1733,16174,1076,2690,164,-894,-3270,297,378,-588
1734,16354,1042,2690,330,-508,-3386,-259,-51,573
1735,16533,1039,2691,78,64,-3570,-65,-29,535
1736,16533,1085,2690,192,-282,-4434,-142,-333,1033
1737,16677,1076,2689,334,-1856,-3008,-252,86,921
1738,16677,1136,2691,534,-1206,-4074,-22,-228,166
1739,16748,1123,2689,60,2330,-3336,-188,-203,96
1740,16748,1135,2689,214,-74,-4626,252,-393,-66
1741,16820,1158,2691,770,40,-3852,93,124,-423
1742,16808,1011,2690,-72,1090,-4716,-436,-32,40
1743,16808,1050,2690,12,-1924,-2246,77,-89,243
1744,16904,1107,2690,-242,1056,-4076,-116,-419,653
1745,16904,1186,2690,-920,2630,-3688,-178,-216,-75
1746,16976,1025,2691,-618,-410,-4110,-226,-314,99
1747,16976,1061,2691,-648,718,-4744,-207,-25,63
1748,17000,1113,2689,-494,1004,-3918,-307,-419,-111
1749,16976,1060,2689,-876,2206,-6016,-111,269,402
1750,16976,1183,2691,-68,-1714,-3282,55,-168,334
1751,16976,1093,2690,462,-274,-5092,29,200,-81
1752,16976,1098,2690,388,-1144,-5638,-536,401,-25
1753,16964,1087,2690,-360,-1026,-2958,35,105,-170
1754,16964,1072,2690,-176,1176,-4582,74,-60,-261
1755,16976,1107,2691,60,-1418,-3038,-81,-57,43
1756,16976,1164,2690,-170,1318,-5346,48,-19,-276
1757,16976,920,2689,948,-1974,-5136,203,-70,137
1758,16964,1182,2691,500,-800,-4562,45,67,352
1759,16964,1107,2690,-588,-110,-4648,187,-318,632
1760,16964,957,2690,-246,738,-4392,-226,219,-134
1761,16976,1251,2691,520,772,-5440,-120,229,441
1762,16976,1052,2691,-56,-116,-3682,-87,-118,-137
1763,16964,984,2690,370,1908,-4770,3,-118,-246
1764,16964,1108,2690,-198,-996,-3582,113,121,-5
1765,16976,1139,2690,198,-516,-3256,97,41,-131
1766,16976,1129,2691,874,-1032,-3506,87,248,105
1767,16976,1075,2691,-158,64,-5210,384,-733,-43
1768,16964,1105,2692,-172,-128,-3978,135,458,60
1769,16964,1072,2690,-236,430,-2980,-117,-178,-287
1770,16892,1111,2691,344,-340,-1972,-239,140,-61
1771,16892,1201,2691,-302,-1772,-2048,-36,238,-382
1772,16904,1091,2691,128,-966,-4916,-397,-16,-273
1773,16904,1100,2691,0,392,-2744,142,-108,432
1774,16940,1124,2690,302,-260,-4298,132,-42,-111
1775,16689,1091,2690,104,1716,-3876,9,76,-1083
1776,16689,1185,2691,-204,1184,-3348,165,413,16
1777,15995,1116,2691,-1282,1202,-4462,-20,-13,72
1778,15995,1128,2692,204,-810,-4570,26,-546,175
1779,15254,1073,2690,172,-1270,-4366,171,-101,243
1780,15254,1149,2691,-2826,1604,-4720,-171,324,485
1781,14919,1133,2691,-2616,-598,-2806,235,-829,-438
1782,14692,1068,2690,-5070,-136,-2656,-126,-743,679
1783,14692,1114,2690,-444,-606,-2192,-88,212,1045
1784,14704,1171,2689,-1010,202,-5020,-20,-378,806
1785,14704,1143,2691,-674,-504,-4666,-123,-45,1045
1786,14919,1053,2690,226,-456,-2856,58,23,535
1787,14919,1176,2692,-476,74,-4050,-191,305,777
1788,15122,1088,2690,-308,-1514,-2164,61,-416,927
1789,15397,1136,2690,-454,384,-1690,-55,156,794
1790,15397,1053,2691,-344,-916,-2912,258,-50,482
1791,15601,1149,2691,14,278,-4776,-68,-206,334
1792,15601,1160,2690,24,-208,-3080,-152,-276,712
1793,15505,1104,2690,-18,488,-4788,-123,-89,782
1794,15397,1192,2689,-432,114,-2768,-168,-261,865
1795,15397,1154,2691,-440,886,-4254,148,-118,835
1796,15361,1136,2691,-262,278,-3836,-46,-241,785
1797,15361,1142,2690,-130,686,-4738,26,-64,402
1798,15373,1149,2690,-608,-720,-2990,148,47,644
1799,15373,1055,2691,-622,390,-5448,-178,-114,679
1800,15361,1213,2690,886,-1436,-4360,-349,229,-90
1801,15373,1136,2689,158,-860,-4094,-23,86,1042
1802,15373,1048,2691,464,512,-5438,-29,-190,950
1803,15361,1160,2690,-1232,-42,-2300,119,397,729
1804,15361,1131,2690,894,-1034,-5516,77,-98,526
1805,15385,1167,2690,-924,2494,-2980,-375,-213,355
1806,15385,1159,2690,-222,-422,-4596,-265,-38,662
1807,15469,1239,2690,-410,330,-3874,-249,44,497
1808,15589,1101,2690,-744,-996,-3034,-97,314,343
1809,15589,1095,2690,-20,-300,-1804,122,248,396
1810,15720,1175,2691,-902,332,-4504,-275,181,688
1811,15720,1136,2690,18,636,-2730,-19,19,217
1812,15756,1126,2689,204,1022,-5300,6,159,729
1813,15756,1138,2690,-486,452,-4048,19,-159,744
1814,15732,1255,2689,-62,-206,-4934,71,327,782
1815,15768,1020,2690,-558,-934,-3462,103,-54,641
1816,15768,1153,2690,-4,-1142,-4378,-97,-165,1446
1817,15720,1172,2690,-378,-30,-4692,-320,-207,909
1818,15720,1150,2689,-392,28,-4082,-204,-111,1086
1819,15720,1198,2689,112,804,-3684,-87,29,841
1820,15720,1138,2691,154,-436,-3568,74,191,670
1821,15720,1213,2691,-1700,360,-1000,77,-264,1301
1822,15720,957,2689,4,258,-4164,-191,-146,1313
1823,15720,1186,2690,-174,1544,-3810,-191,340,750
1824,15612,1146,2689,-852,1218,-3082,193,-200,461
1825,15612,1112,2691,-876,366,-4298,125,-426,323
1826,15409,1157,2690,-248,-1016,-3180,51,238,396
1827,15349,1144,2690,-460,-134,-4872,42,337,647
1828,15349,1145,2688,-280,82,-2716,-94,289,1027
1829,15337,1092,2690,542,-774,-5382,42,152,641
1830,15337,1179,2692,-480,520,-5110,113,547,629
1831,15349,1098,2689,10,1822,-4082,-139,-45,638
1832,15349,1121,2689,-392,-634,-3108,-58,197,768
1833,15373,1006,2689,-398,554,-2952,49,-44,853
1834,15421,1188,2690,128,1526,-4354,-39,-318,715
1835,15421,1121,2691,-532,-34,-1980,91,-371,667
1836,15541,1137,2690,-60,334,-4016,-178,-35,1062
1837,15541,1151,2691,-174,-1288,-4130,97,-333,676
1838,15756,1124,2690,-722,576,-2864,303,-108,558
1839,15756,1016,2691,-284,-490,-2516,-10,63,305
1840,16043,1281,2689,126,78,-4228,-346,-143,623
1841,16808,1027,2691,554,-168,-4754,16,-193,488
1842,16808,1159,2691,1274,932,-5230,-123,444,461
1843,16964,1252,2689,1470,660,-3254,-29,-118,57
1844,16964,1076,2691,-694,296,-4940,48,-121,-231
1845,16964,1098,2692,-122,168,-4690,-162,263,214
1846,16964,1161,2691,-566,596,-3876,-33,-397,-550
1847,16964,1092,2690,-216,-54,-3910,184,791,629
1848,16988,1114,2691,784,-316,-5462,219,-295,-396
1849,16988,1125,2690,-320,-224,-4418,32,-139,-237
1850,17047,1233,2689,-558,1896,-1586,122,-279,-1340
1851,17047,942,2689,-204,1500,-5532,-29,264,-72
1852,17011,1179,2691,790,86,-3548,113,442,211
1853,16988,1113,2691,-304,-114,-4792,203,200,349
1854,16988,1131,2690,140,750,-3838,206,200,122
1855,16964,1131,2689,128,922,-4460,6,286,-34
1856,16964,1099,2691,-336,220,-5462,-42,165,-276
1857,16976,1124,2690,72,-1324,-1634,113,-155,-175
1858,16976,1117,2689,-628,-304,-3194,67,137,-99
1859,16976,1133,2691,-102,1964,-5602,168,169,214
1860,16976,1152,2691,-320,528,-3582,103,-156,169
1861,16976,1240,2691,60,660,-4722,219,470,-84
1862,16964,1085,2689,-498,-458,-3704,16,-330,-90
1863,16964,1122,2690,-202,-1578,-3120,29,-47,-270
1864,16964,1175,2690,300,-746,-4082,132,524,-187
1865,16964,1077,2691,534,186,-2978,274,-16,-167
1866,16976,1169,2690,194,788,-5774,200,-70,128
1867,16808,1095,2690,222,338,-4712,-55,-324,31
1868,16808,1116,2690,-252,814,-4616,-133,-553,1133
1869,16569,1023,2690,-70,-746,-3240,84,-378,452
1870,16569,1163,2691,-290,-1514,-4418,365,92,66
1871,16270,1069,2691,232,-900,-4184,326,156,1
1872,16270,1207,2691,-1126,-884,-4932,342,181,-553
1873,16163,1034,2690,-228,672,-3294,35,-76,-63
1874,16055,1108,2690,-766,-1360,-2900,148,-76,7
1875,16055,1094,2690,586,1314,-5104,374,-22,231
1876,16067,1107,2691,-588,-788,-4166,210,96,491
1877,16067,1080,2690,44,-414,-3704,-3,197,87
1878,16031,1056,2689,8,-138,-4054,148,-280,-311
1879,15959,1085,2690,-450,-374,-4388,-49,311,199
1880,15959,916,2690,-362,-1256,-3378,180,521,110
1881,15230,1094,2689,770,-2,-4262,84,244,-264
1882,15230,1104,2692,-1374,10,-4960,404,-511,317
1883,14405,1104,2690,-2538,-914,-5404,510,184,673
1884,14405,1012,2690,-206,646,-4458,71,133,874
1885,13652,1114,2690,3130,158,-2712,58,-425,-46
1886,13006,1058,2689,-4824,1942,-1116,-265,187,3022
1887,13006,1191,2691,-3024,500,-6732,-604,1035,3818
1888,12683,1013,2689,-1096,-228,-4654,474,559,1224
1889,12683,1013,2690,-3008,-104,-4312,210,-346,1997
1890,12587,1065,2692,-1032,266,-4268,-313,508,1826
1891,12587,1181,2690,104,1176,-4784,158,121,2041
1892,12575,1000,2689,-394,-240,-2140,342,626,1838
1893,12444,1079,2691,-634,3000,-5634,84,597,1552
1894,12444,1104,2691,-472,1374,-5374,67,410,1858
1895,12241,1131,2689,-466,-1400,-3366,51,295,1911
1896,12241,1159,2690,-202,-136,-3930,-249,-139,1973
1897,12145,1151,2691,-4,244,-5160,216,-32,2056
1898,12145,1254,2690,474,-894,-1970,397,200,1917
1899,12109,1062,2690,-186,-742,-4886,26,292,1832
1900,12121,1116,2691,-1794,-206,-4504,42,197,2551
1901,12121,1154,2689,-952,-682,-3282,-162,257,2162
1902,12229,1114,2690,-304,-548,-2762,48,-38,2901
1903,12229,1075,2690,-712,-434,-3334,-171,-368,2380
1904,12480,1101,2690,-60,-346,-4752,-349,-286,2521
1905,12480,1115,2690,194,-2512,-3616,139,-374,3597
1906,12743,1159,2691,-818,170,-3286,-120,413,2504
1907,13018,1233,2691,168,-1000,-2686,113,254,1894
1908,13018,1095,2691,-298,114,-4464,262,7,2023
1909,13161,1233,2691,-528,-1532,-4612,0,244,1979
1910,13161,1096,2692,-1824,798,-6484,-155,-428,1504
1911,13173,1037,2691,294,-382,-3876,-410,165,2227
1912,13257,1129,2690,1092,1586,-4682,-188,-60,2153
1913,13257,1041,2690,44,1124,-5116,190,289,1558
1914,13508,1182,2692,622,386,-5788,158,-127,443
1915,13508,1065,2691,-410,-186,-5012,-97,6,1955
1916,13795,1110,2690,1250,-1072,-5540,-136,397,1001
1917,13795,1088,2690,270,-1760,-4340,32,254,1587
1918,14142,1146,2690,-844,316,-3780,-10,492,1472
1919,14752,1075,2690,568,-692,-3916,-81,73,1658
1920,14752,1009,2692,-886,72,-4840,-388,721,2241
1921,15146,1169,2692,640,214,-4352,-4,473,1257
1922,15146,1034,2689,112,136,-4298,158,-416,673
1923,15708,1114,2693,-242,758,-4658,-278,89,871
1924,15708,1089,2691,792,154,-3696,113,664,-161
1925,15876,1147,2689,766,846,-5254,-239,-410,1207
1926,16222,1062,2690,278,150,-5226,-343,38,877
1927,16222,1120,2692,-340,-1178,-5214,-155,9,1504
1928,16581,1063,2692,1416,-634,-4906,113,315,959
1929,16581,1166,2689,-164,646,-3778,-87,-282,373
1930,16904,1076,2691,-224,328,-3580,129,149,31
1931,16904,1062,2691,-148,-1632,-4298,-26,569,205
1932,16988,1111,2691,518,-36,-4552,-91,-25,-665
1933,16964,1081,2691,48,-1248,-3620,-36,-98,-19
1934,16964,1121,2691,-180,-250,-3172,-84,-197,-234
1935,16964,1168,2690,-392,-1882,-4826,210,521,181
1936,16964,1038,2690,-14,-1274,-4196,358,-282,-535
1937,16976,1033,2690,-636,1484,-4512,-168,283,140
1938,16976,1125,2690,-264,442,-3558,-397,368,134
1939,16976,1086,2689,-422,834,-3488,-275,-86,187
1940,16976,1112,2690,462,-1854,-3556,90,-356,361
1941,16976,1099,2690,140,-1050,-4382,97,7,-105
1942,16964,1080,2690,250,-438,-2670,-510,-194,2736
1943,16964,1031,2689,90,932,-3578,-284,38,-102
1944,16964,1158,2691,138,-1086,-3354,-61,-292,-417
1945,16976,1067,2692,314,-380,-3150,232,95,43
1946,16976,1192,2691,32,1532,-3536,38,26,81
1947,16964,1014,2690,-290,-34,-3940,-20,229,-96
1948,16964,1050,2689,70,1346,-3574,-78,-117,-25
1949,16976,1107,2691,-548,2146,-4886,-94,112,149
1950,16976,1114,2689,-114,102,-4550,135,111,93
1951,16964,1160,2689,-792,148,-4404,-65,286,-408
1952,16964,1111,2689,364,1452,-4138,-93,-279,-46
1953,16964,1123,2689,38,112,-4454,168,-134,-37
1954,16976,1093,2690,24,-206,-3864,203,-6,10
1955,16976,1164,2691,4,446,-5346,-204,58,4
1956,16976,1134,2691,60,750,-3404,-58,-381,-184
1957,16976,1230,2691,116,1692,-5760,-13,730,-314
1958,16976,864,2690,-176,-790,-3806,300,-101,-143
1959,16976,1198,2690,398,-2116,-3292,-26,194,243
1960,16976,1143,2692,270,-1082,-3082,-288,-349,-105
1961,16964,1081,2689,600,500,-3104,-194,23,379
1962,16964,1152,2689,510,-1020,-3882,-23,-261,237
1963,16964,1129,2689,-142,238,-1852,229,-441,343
1964,16964,1130,2691,228,-1156,-3636,406,175,-273
1965,16976,1139,2691,204,-278,-3928,-48,283,-122
1966,16976,1170,2691,-818,-36,-4716,-259,-66,54
1967,16976,1130,2689,286,1298,-2650,-255,-29,-52
1968,17000,1249,2691,290,1086,-5296,245,-467,-567
1969,17000,970,2691,168,-1192,-2532,284,105,-22
1970,17000,1187,2692,264,-408,-4312,-129,261,-34
1971,17000,1117,2689,16,1584,-4634,-152,-172,102
1972,17000,1101,2689,-188,70,-3834,135,155,90
1973,17000,1177,2691,354,-184,-4200,-226,-9,-10
1974,17000,1128,2690,-284,610,-4270,161,-381,4
1975,16964,1101,2690,-56,1402,-7004,-33,-38,116
1976,16964,1179,2690,-980,-1812,-1248,-10,346,81
1977,16964,1083,2690,-26,176,-3770,177,375,-317
1978,16892,1138,2690,-296,-398,-3864,-436,155,-10
1979,16892,1136,2691,506,516,-2622,-158,45,-317
1980,16904,1154,2690,-14,-214,-4160,335,-203,-90
1981,16904,1153,2691,-14,-324,-4154,180,-47,249
1982,16892,1236,2691,-240,-1500,-3526,226,-83,25
1983,16892,1005,2690,304,-454,-5010,139,-9,-164
1984,16808,1196,2690,-602,-266,-2014,-233,594,-131
1985,16808,1200,2689,94,-1414,-4150,-9,162,252
1986,16808,1134,2689,-858,3590,-4768,26,-359,-738
1987,16796,1239,2691,-226,-262,-4892,80,-54,234
1988,16796,1070,2690,-496,-572,-3668,87,-60,-364
1989,16916,1309,2691,-400,2180,-4180,-200,241,-853
1990,16916,1118,2690,690,-222,-3272,100,58,-367
1991,16976,1087,2691,-522,-204,-2754,100,292,19
1992,16976,1205,2691,604,-438,-3954,110,-345,-72
1993,16976,1108,2691,80,-82,-5888,26,445,850
1994,16964,1222,2690,-188,-622,-4866,-107,-673,63
1995,16964,1107,2691,-36,492,-3672,-78,178,-37
1996,16964,1164,2691,-794,1778,-1274,-68,-273,379
1997,16940,1026,2691,130,2234,-5902,-13,-165,69
1998,16940,1199,2689,-214,1026,-4396,113,-57,214
1999,16928,1202,2689,172,476,-3586,106,-22,54
2000,16928,1159,2690,-130,1202,-3300,-301,-264,205
2001,16892,1173,2690,-680,-506,-4614,35,279,37
2002,16892,1063,2691,-528,-1530,-4204,416,-496,-606
2003,16916,1154,2691,-482,1074,-4778,-4,200,-370
2004,16653,1182,2690,330,-842,-5478,51,-266,-22
2005,16653,1186,2689,-374,1282,-6104,200,77,-323
2006,16402,1195,2692,-326,-504,-3464,-126,45,-208
2007,16402,1246,2691,78,3320,-4386,-355,743,721
2008,16091,1106,2691,402,-2242,-1896,78,-183,-122
2009,16091,1114,2691,-786,-368,-3822,106,-127,-411
2010,15768,1161,2690,-536,46,-3294,-219,381,-320
2011,15708,1276,2690,-382,-572,-3620,-110,-139,75
2012,15708,1153,2690,-460,802,-4454,-113,-134,405
2013,15708,1213,2690,-84,-2654,-3822,29,203,647
2014,15708,1188,2692,608,-1106,-5466,306,-257,847
2015,15768,1174,2690,-236,164,-3478,-255,-231,597
2016,15768,1200,2690,-420,-720,-3514,-62,-216,532
2017,15959,1174,2691,-534,1146,-1848,171,124,237
2018,16163,1255,2692,-288,596,-3900,-139,213,491
2019,16163,1163,2691,-426,-116,-2326,103,172,511
2020,16210,1229,2691,-48,-1650,-3000,109,121,915
2021,16210,1135,2691,236,-1654,-3962,64,136,1107
2022,16282,1260,2689,350,392,-1936,-346,-365,287
2023,16282,1206,2690,-70,-272,-2928,368,-172,361
2024,16330,1141,2690,-150,-424,-3932,274,-251,128
2025,16318,1164,2691,-152,-952,-3672,-162,-73,558
2026,16318,1175,2691,620,668,-4728,0,22,246
2027,16210,1151,2689,-286,-92,-4584,-149,289,-447
2028,16210,1187,2690,174,798,-1854,216,118,402
2029,16103,1278,2690,-770,562,-4268,235,162,296
2030,15864,1158,2692,-362,-606,-4458,38,639,51
2031,15864,1293,2691,-436,600,-5010,19,435,-102
2032,15577,1024,2691,532,-2326,-5218,-10,-146,-28
2033,15577,1189,2689,184,2182,-5590,-104,-400,-765
2034,15122,1166,2689,168,-294,-3100,71,-3,134
2035,15122,1108,2691,-94,-698,-2988,561,-283,90
2036,15062,1245,2692,-790,-630,-4876,232,26,567
2037,15062,1030,2689,-434,460,-3352,-129,390,906
2038,15062,1272,2689,-396,-316,-3318,-142,-133,791
2039,15051,1110,2691,-16,296,-4048,80,-124,656
2040,15051,1115,2692,-36,-1472,-4150,90,394,856
2041,15062,1108,2691,-274,-304,-2766,87,-282,358
2042,15062,1164,2690,-374,-60,-4008,-104,-363,541
2043,14919,1218,2690,-76,390,-3876,-165,-64,355
2044,14584,1115,2690,154,268,-3990,42,242,508
2045,14584,1289,2689,-1256,-162,-2144,187,314,-72
2046,14572,1079,2691,-470,1182,-3392,-71,-212,1513
2047,14572,1113,2690,-556,798,-4056,-16,334,897
2048,14584,1124,2690,662,566,-3504,-175,-168,697
2049,14584,1180,2690,-922,1540,-4632,-104,-86,470
2050,14787,1134,2689,-392,266,-3474,38,185,441
2051,15074,1137,2691,128,340,-3924,-13,-463,942
2052,15074,1239,2689,320,-2022,-4848,151,242,1139
2053,15349,1037,2691,-300,1768,-4678,61,-203,883
2054,15349,1121,2690,-750,896,-4256,-117,-76,903
2055,15828,1152,2689,-580,-522,-3226,-75,-155,367
2056,16270,1134,2691,508,-130,-1724,-407,210,703
2057,16270,1195,2690,-238,692,-4716,-106,-397,435
2058,16689,1143,2692,1470,300,-4384,152,-279,476
2059,16689,1138,2691,512,-1032,-242,-3,-231,-167
2060,16964,1161,2690,580,-214,-5066,-36,23,346
2061,16964,1156,2689,382,872,-4972,-120,327,1
2062,16976,1189,2690,378,-122,-4980,-120,-207,40
2063,16964,1140,2690,-118,1790,-4582,-213,70,46
2064,16964,1220,2691,-10,-1674,-2838,-94,162,-114
2065,16976,1093,2690,-526,972,-3224,-226,-375,-131
2066,16976,1135,2690,164,1144,-4228,71,175,741
2067,16964,1090,2689,376,-1630,-3064,-7,-80,-933
2068,16964,1197,2690,-312,-450,-2002,35,92,-653
2069,16988,1146,2690,-180,1468,-3560,106,299,-52
2070,16988,1157,2690,292,-1080,-3904,139,16,-196
2071,16988,1202,2692,344,232,-3132,-122,267,-72
2072,17000,1160,2691,-86,594,-4704,45,255,119
2073,17000,1156,2690,722,-626,-2282,-330,-162,2468
2074,16976,1043,2690,174,-756,-2282,71,223,974
2075,16976,1091,2691,486,638,-5066,-100,118,78
2076,16964,1268,2691,-532,1200,-4300,-117,330,7
2077,16796,1042,2691,-280,1878,-3798,-229,70,105
2078,16796,1114,2690,196,1146,-6418,-294,86,-450
2079,16629,1221,2692,114,488,-4696,-249,29,-349
2080,16629,1205,2689,-1140,2370,-2394,-42,460,-226
2081,16414,1285,2690,-160,234,-1924,210,-54,-508
2082,16414,1157,2691,-134,608,-4596,119,127,-323
2083,16210,1211,2690,280,2178,-3790,-271,-470,-391
2084,15947,1209,2689,-418,1110,-5726,90,-296,-214
2085,15947,1186,2690,-190,-274,-4832,200,79,-143
2086,15852,1143,2691,-314,-1190,-3322,99,95,352
2087,15852,1260,2689,38,380,-4508,-317,-241,-69
2088,15864,1015,2690,-340,-280,-4218,-401,-213,143
2089,15852,1191,2690,-728,-352,-3552,-436,143,134
2090,15852,1189,2690,-266,1156,-3242,310,530,-16
2091,15947,1168,2691,288,-318,-5318,164,-143,311
2092,15947,1159,2692,-222,788,-3830,203,124,196
2093,16163,1159,2691,-154,-992,-3546,-181,244,4
2094,16163,1187,2688,118,-1076,-1658,-78,-165,1693
2095,16497,1187,2691,260,-774,-4188,155,-209,1154
2096,16904,1178,2691,368,-974,-5698,-78,-156,225
2097,16904,1190,2689,-652,680,-4998,-10,28,-187
2098,17000,1176,2689,764,-536,-4612,123,-66,-623
2099,17000,1201,2690,378,-270,-4694,-346,673,-290
2100,17000,1201,2690,304,-488,-4776,-74,-174,-111
2101,17000,1306,2692,580,-222,-6000,303,115,54
2102,16988,1118,2690,386,-766,-3844,87,-244,22
2103,16976,1181,2690,294,308,-3184,38,346,-63
2104,16976,1205,2689,-238,562,-4102,219,-279,-1378
2105,16976,1175,2690,-4,-370,-2916,-49,-3,-52
2106,16976,1212,2692,-28,-1006,-5076,-58,206,-63
2107,16820,1163,2690,1170,-696,-3760,20,-289,205
2108,16820,1247,2690,-372,444,-5542,29,-534,49
2109,16414,1103,2691,-766,586,-4240,-161,-257,-149
2110,15864,1143,2691,-860,676,-3000,61,-118,-205
2111,15864,1187,2690,-1164,4098,-4056,197,-419,-1502
2112,15361,1211,2691,-174,238,-4874,35,191,214
2113,15361,1232,2691,-920,666,-5092,-10,-41,107
2114,15062,1066,2690,-1590,-616,-3184,122,-50,673
2115,15074,1256,2689,1100,1816,-4712,-507,622,859
2116,15074,1173,2689,-564,-606,-4806,-129,25,709
2117,15146,1118,2691,10,2236,-5670,122,178,529
2118,15146,1173,2691,-910,-300,-4230,-268,-629,685
2119,15230,1116,2690,-256,-1046,-3350,371,61,768
2120,15230,1201,2690,42,-70,-4284,-210,423,986
2121,15337,1196,2689,-994,-1604,-3682,-165,-140,747
2122,15242,1168,2689,-238,1512,-2744,-274,-247,977
2123,15242,1246,2689,-718,-554,-3536,-4,-165,600
2124,15218,1165,2690,686,-1332,-3234,268,-143,676
2125,15218,1190,2690,-108,-488,-4168,-100,140,915
2126,15230,1257,2689,-456,326,-3684,-155,-63,782
2127,15230,1175,2690,62,-904,-3492,61,-114,909
2128,15230,1208,2690,-784,2580,-4008,-75,57,883
2129,15242,1209,2691,192,-672,-4630,0,175,933
2130,15242,1219,2690,-230,1788,-5688,-52,-600,644
2131,15361,1194,2690,-90,1378,-3714,10,-260,712
2132,15361,1297,2691,568,1132,-5688,22,-212,883
2133,15409,1093,2691,118,-2090,-4756,191,-279,346
2134,15409,1215,2690,-450,1384,-4228,100,318,676
2135,15230,1219,2691,486,-2170,-4792,713,-311,880
2136,15051,1190,2691,442,-1808,-4830,145,6,900
2137,15051,1266,2691,-320,970,-1710,-97,134,390
2138,14943,1217,2690,376,-2766,-3148,261,347,-447
2139,14943,1189,2689,250,2228,-4880,80,511,927
2140,14991,1205,2691,660,-1076,-2152,106,559,632
2141,14991,1196,2691,-654,1636,-5260,387,-454,438
2142,15074,1216,2690,-1002,-744,-2718,-224,-125,691
2143,15098,1256,2691,326,-1114,-3214,16,-63,750
2144,15098,1193,2691,-718,-474,-3582,487,-184,662
2145,15134,1251,2691,250,410,-4374,313,-22,461
2146,15134,1182,2691,-768,-196,-3492,416,-197,891
2147,15230,1281,2691,-486,1934,-4248,213,-165,656
2148,15756,1163,2690,-598,-572,-3910,284,-70,558
2149,15756,1179,2690,-196,-418,-3418,374,-432,750
2150,16163,1238,2690,-288,-282,-4988,16,233,623
2151,16163,1124,2691,66,334,-5134,155,-197,889
2152,16820,1224,2690,-868,2378,-3840,-81,70,818
2153,16820,1209,2690,-326,454,-3896,232,248,499
2154,16976,1189,2690,1404,-242,-4570,42,451,-25
2155,16964,1148,2690,578,-154,-2874,248,140,-570
2156,16964,1185,2690,1088,-12,-3814,287,-289,16
2157,16976,1255,2690,336,2,-4880,-136,137,-122
2158,16976,1208,2689,-194,320,-3862,35,191,190
2159,16988,1321,2690,-282,2176,-3480,-242,-197,488
2160,16988,1150,2692,-870,-862,-3700,204,-98,287
2161,17011,1158,2691,224,188,-4632,168,257,137
2162,17035,1224,2690,-814,1492,-4536,-164,-310,225
2163,17035,1094,2690,938,550,-3536,-4,346,-19
2164,16988,1255,2689,240,-1062,-3578,239,121,40
2165,16988,1162,2691,-604,-204,-3832,-68,95,278
2166,16988,1176,2690,390,-1086,-4646,232,209,81
2167,16988,1304,2691,822,-602,-5500,-220,-238,-326
2168,16988,1178,2692,566,-326,-2396,-100,16,228
2169,16964,1175,2689,-102,592,-4856,239,559,-500
2170,16964,1127,2690,116,904,-4258,184,-31,-28
2171,16988,1176,2690,-248,1194,-3546,106,127,-134
2172,16988,1154,2690,-196,-192,-2840,-110,-499,915
2173,17000,1157,2691,40,1880,-4938,-81,-365,166
2174,16964,1304,2691,90,-1484,-4336,-206,-244,19
2175,16964,1153,2689,-604,770,-3726,-51,-168,-66
2176,16916,1165,2692,-10,-2516,-5264,-13,-498,-576
2177,16916,1168,2690,-800,54,-3640,-91,124,-117
2178,16581,1211,2692,358,642,-3996,-155,194,-193
2179,16581,1153,2691,-366,392,-4674,-339,-451,51
2180,16043,1169,2691,214,716,-2814,-91,365,-231
2181,15720,1238,2690,-572,-460,-3478,78,-314,-411
2182,15720,1120,2691,-292,484,-3460,32,813,-49
2183,15577,1158,2692,-1394,-424,-2490,97,108,611
2184,15577,1035,2690,-284,-26,-3946,-294,-270,411
2185,15445,1165,2691,-150,-1164,-3424,-42,-686,-37
2186,15445,1107,2690,-198,-316,-4210,3,-241,626
2187,15302,1150,2691,-94,-62,-4094,-23,-334,131
2188,15146,1199,2689,-268,-298,-4706,74,67,334
2189,15146,1085,2689,38,-50,-4132,-13,9,491
2190,14943,1261,2690,-306,2998,-4968,-449,251,691
2191,14943,1160,2690,834,90,-3702,145,-327,396
2192,14692,1118,2691,-654,76,-2784,232,451,461
2193,14692,1162,2691,-294,-506,-4300,-62,150,417
2194,14536,1126,2690,402,1504,-6418,-230,184,402
2195,14465,1186,2690,584,-748,-4114,-104,-41,205
2196,14465,1130,2690,-2032,-92,-3776,-104,-83,623
2197,14465,1156,2691,-2394,1546,-2988,64,48,1251
2198,14465,1308,2689,258,-2416,-2920,180,-245,821
2199,14333,1120,2690,-550,1716,-3978,32,-257,768
2200,14022,1197,2691,-20,86,-3502,-168,562,1213
2201,14022,1052,2688,-908,2976,-4464,-310,-3,968
2202,13771,1205,2689,-452,330,-3900,87,362,1168
2203,13771,1134,2690,-1128,376,-4842,155,-412,1419
2204,13532,1178,2690,26,1474,-2226,-330,131,1802
2205,13532,1169,2690,-142,412,-3736,-239,6,1334
2206,13412,1194,2691,-288,-980,-3948,-197,-28,1525
2207,13412,1228,2691,-1146,1794,-5806,16,-197,1796
2208,13412,1151,2690,-600,804,-4928,103,-184,1699
2209,13496,1160,2690,-900,124,-4350,-188,-155,1549
2210,13496,1181,2690,-428,108,-3160,-407,191,1728
2211,13532,1190,2691,-226,-134,-3068,-81,-15,1502
2212,13532,1197,2691,490,-694,-4170,74,-178,1313
2213,13783,1159,2692,-406,-1654,-4240,151,-197,1051
2214,13831,1191,2691,-702,1870,-3692,-126,-114,1036
2215,13831,1097,2691,-130,430,-3456,-471,-56,1310
2216,13783,1240,2690,-602,-210,-2668,-207,305,1307
2217,13783,1073,2690,-576,-860,-3252,113,-375,1643
2218,13640,1149,2690,-262,1386,-3266,16,-629,1628
2219,13640,1230,2690,-592,-952,-2956,58,99,1310
2220,13508,1145,2690,-90,-752,-4978,-135,347,1334
2221,13317,1195,2691,-1274,-982,-2922,-271,0,1522
2222,13317,1149,2688,-416,750,-3126,-265,76,1779
2223,13424,1235,2691,-936,986,-4132,-23,105,1413
2224,13424,1140,2690,-518,268,-4424,6,-146,1684
2225,13436,1143,2691,-1000,156,-4860,-546,302,2106
2226,13436,1283,2690,-94,678,-3012,-313,477,1767
2227,13592,1126,2691,-446,2182,-4848,-55,-80,1649
2228,13783,1181,2692,-940,634,-3152,-181,194,1823
2229,13783,1177,2691,-140,-48,-4398,-120,229,1758
2230,13962,1216,2691,-54,462,-5316,-203,80,1672
2231,13962,1146,2691,24,-530,-3528,-159,172,1563
2232,14297,1283,2690,-390,-1982,252,35,-620,1537
2233,14799,1052,2691,514,670,-4830,100,270,1419
2234,14799,1148,2692,240,-570,-3616,300,-9,1457
2235,15134,1116,2692,1036,192,-4774,206,-45,1431
2236,15134,1149,2690,130,-470,-3784,181,-12,688
2237,15708,1154,2691,-1646,798,-4038,-204,-86,1254
2238,15708,1245,2689,268,-120,-2840,245,368,1216
2239,16031,1229,2690,1896,-1300,-4786,119,89,2120
2240,16342,959,2691,348,-710,-4868,-3,-3,314
2241,16342,1120,2692,-1918,66,-3038,42,324,314
2242,16976,1173,2691,1490,-432,-3848,-284,67,1027
2243,16976,1087,2689,666,90,-4842,-46,-108,700
2244,16964,1253,2693,1270,-320,-2956,-110,299,485
2245,16964,1080,2691,-86,2080,-4132,-10,-225,155
2246,16964,1291,2692,70,2606,-4122,-191,334,178
2247,16964,1154,2691,594,-254,-3030,-158,-19,367
2248,16964,1100,2690,312,434,-3752,358,-111,-34
2249,16976,1170,2692,526,-2648,-4102,-65,-442,-184
2250,16976,1161,2690,-784,476,-3802,-42,118,-190
2251,16964,1209,2691,-484,-396,-3142,-91,-228,-246
2252,16964,1117,2689,242,-924,-2990,-236,61,-28
2253,16976,1297,2690,-230,-376,-1956,203,441,-479
2254,16976,1130,2691,1220,-792,-5172,168,397,-69
2255,16976,1124,2690,146,204,-4156,32,-130,-267
2256,16904,1203,2689,-28,-1702,-3720,177,-155,-827
2257,16904,1053,2691,350,-2610,-4072,-78,16,-411
2258,16808,1245,2691,102,-118,-3988,-29,-581,-84
2259,16509,1083,2692,-582,10,-2546,-39,-45,-66
2260,16509,1180,2691,838,-3302,-5492,-162,-505,833
2261,16186,1079,2691,-176,592,-4754,319,648,158
2262,16186,1183,2691,604,422,-3988,-6,296,143
2263,15935,1162,2690,-840,-396,-4944,-94,-238,13
2264,15935,1126,2691,380,3314,-6192,-246,451,494
2265,15708,1268,2689,444,-182,-4874,-104,16,-329
2266,15242,1115,2690,-1158,800,-3906,158,-89,-155
2267,15242,1149,2692,896,-298,-3654,200,-146,-1434
2268,15062,1148,2691,104,68,-4414,9,-168,370
2269,15062,1126,2691,178,-716,-3462,51,-57,541
2270,14943,1168,2690,112,-1030,-3626,-91,-35,96
2271,14943,1151,2690,-286,-2994,-4130,71,547,803
2272,14991,1190,2691,538,-730,-3590,116,245,741
2273,15039,1166,2690,-432,332,-2170,-87,42,270
2274,15039,1199,2689,236,634,-2088,-117,89,429
2275,15074,1230,2690,232,2648,-5792,222,-127,777
2276,15074,1183,2691,-6,-274,-5914,164,-295,1157
2277,15074,1110,2690,-14,740,-6238,-33,410,806
2278,15074,1192,2689,-554,772,-3840,-149,153,1054
2279,15062,1189,2690,-774,740,-5162,-110,349,441
2280,14943,1215,2690,322,-1600,-4118,271,-194,732
2281,14943,1320,2692,-670,1128,-5464,332,-251,585
2282,14752,1100,2691,-1030,-464,-2870,197,-397,1107
2283,14752,1173,2690,-214,576,-3598,71,-203,1186
2284,14680,1238,2689,-924,-356,-2910,-117,327,865
2285,14680,1235,2690,148,-32,-3990,229,-292,653
2286,14572,1213,2692,-104,936,-4562,-213,127,399
2287,14524,1253,2692,-1072,-1888,-3418,-87,130,423
2288,14524,1172,2690,-1134,1646,-5020,-213,448,827
2289,14285,1238,2691,-704,-900,-4834,-633,22,824
2290,14285,1169,2690,300,1286,-3970,-10,-143,405
2291,14094,1231,2690,664,-564,-3216,135,496,774
2292,14058,1104,2691,326,-294,-3866,255,-168,768
2293,14058,1191,2691,-224,692,-4772,-87,-162,629
2294,14058,1160,2692,440,-834,-4666,-236,-368,889
2295,14058,1181,2690,-1338,-474,-3528,-297,-530,971
2296,14070,1197,2689,-848,-70,-3140,-155,-162,1148
2297,14070,1180,2689,-662,-1044,-3442,181,413,1115
2298,14094,1221,2690,-556,266,-2168,177,117,838
2299,14237,1153,2691,-444,192,-4002,142,-22,1549
2300,14237,1190,2690,-260,-728,-3784,-75,200,1272
2301,14237,1139,2689,-88,-540,-5014,-204,197,886
2302,14237,1159,2692,188,1818,-5596,-7,38,1213
2303,14178,1183,2690,-426,512,-2978,261,-365,965
2304,14178,1139,2691,-222,-1240,-1436,406,-140,1242
2305,14082,1162,2689,-344,-2340,-2060,145,51,891
2306,14022,1102,2690,-812,-206,-4296,-242,-146,927
2307,14022,1200,2691,-492,292,-3762,-317,60,617
2308,13974,1165,2690,-110,262,-4366,-87,425,1183
2309,13974,1147,2690,-876,584,-4424,-87,-6,1059
2310,13962,1214,2691,296,2894,-4538,-139,-451,1024
2311,13962,1165,2690,-268,1742,-3794,-165,-251,1275
2312,13962,1347,2689,-750,788,-5392,-536,-229,1490
2313,13974,1155,2690,-786,-214,-4586,80,168,1201
2314,13974,1203,2689,604,218,-4280,371,584,1560
2315,13962,1236,2691,-982,1002,-1792,-7,219,1528
2316,13962,1145,2690,-324,48,-4444,200,146,1233
2317,14010,1354,2691,-228,1004,-4146,-381,143,1569
2318,14094,1149,2689,64,-1140,-3776,-68,-134,1743
2319,14094,1245,2689,30,198,-2682,526,-35,1531
2320,14297,1343,2689,-206,-1260,-5418,-9,-31,1867
2321,14297,1254,2691,244,1168,-4560,313,-143,1870
2322,14417,1309,2690,-924,-468,-4914,361,293,1401
2323,14417,1100,2689,-572,342,-3862,-303,-66,1339
2324,14536,1268,2689,-888,244,-4788,-200,276,1469
2325,14536,1261,2690,894,-1130,-3326,-294,-130,1357
2326,14536,1259,2690,-10,-710,-3606,51,-188,1693
2327,14572,1207,2690,366,1486,-5930,397,359,992
2328,14572,1249,2690,-280,-2334,-4038,-16,187,1496
2329,14584,1205,2690,-1604,-28,-2898,-159,162,1584
2330,14584,1243,2689,-1160,-250,-3332,35,-3,635
2331,14680,1197,2689,-766,326,-3384,0,-476,603
2332,14704,1245,2691,-230,342,-3530,-45,-289,1490
2333,14704,1283,2691,1154,278,-5140,-97,258,1446
2334,14728,1193,2690,-324,-786,-3276,32,16,1558
2335,14728,1338,2689,132,190,-3748,-155,397,1269
2336,14775,1130,2691,-284,-1750,-3356,113,-41,1410
2337,14775,1283,2690,308,464,-5746,29,325,1401
2338,14752,1282,2689,-454,1614,-6698,19,22,1048
2339,14704,1224,2690,-616,758,-4128,104,-504,1543
2340,14704,1296,2689,-44,1076,-4136,-162,264,1195
2341,14716,1270,2691,-1012,-1056,-1294,222,314,1263
2342,14716,1263,2689,548,-928,-4480,297,-343,1189
2343,14787,1301,2690,-748,488,-3210,-110,395,1670
2344,15062,1294,2690,122,-1726,-3480,-16,251,1502
2345,15062,1293,2690,192,-592,-3768,-230,76,1384
2346,15146,1381,2689,-68,502,-4230,-388,-139,1419
2347,15146,1295,2690,-658,-978,-3108,288,45,1779
2348,15134,1353,2689,278,910,-4076,-52,-191,889
2349,15134,1267,2691,-222,-134,-2042,-175,-435,833
2350,15182,1209,2692,-624,-514,-3810,38,150,862
2351,15182,1282,2690,896,-3204,-3788,19,416,-1876
2352,15182,1061,2690,-470,-940,-2302,281,-3,467
2353,15146,1134,2690,-38,-216,-3784,219,-118,-196
2354,15146,1171,2691,-92,580,-3458,-149,-273,927
2355,15122,1166,2689,-154,1734,-3190,113,166,1160
2356,15122,1218,2689,60,1952,-3834,16,229,821
2357,15134,1175,2690,-166,76,-2900,412,-217,942
2358,15182,1265,2691,48,-1020,-6106,-149,76,2126
2359,15182,972,2689,-518,-142,-3800,29,-343,900
2360,15122,1141,2689,-94,-1556,-4048,148,-168,771
2361,15122,1127,2690,-22,-764,-2390,-10,-64,762
2362,15146,1151,2690,-500,444,-3248,135,-667,1381
2363,15146,1232,2690,-128,-1006,-3344,339,273,665
2364,15158,1160,2690,-392,778,-4126,264,19,538
2365,15182,1301,2689,-22,-72,-4822,142,565,706
2366,15182,1046,2689,-560,-246,-3538,126,299,491
2367,15230,1161,2690,-868,624,-3246,-164,-181,432
2368,15230,1186,2690,698,-1148,-4816,74,254,1345
2369,15230,1175,2690,388,-1082,-2040,-42,-524,629
2370,15230,1114,2691,292,-308,-2926,54,-271,390
2371,15230,1155,2690,156,-1232,-3578,264,60,314
2372,15218,1154,2690,-1256,936,-6792,-165,-136,1504
2373,15218,1186,2690,492,118,-6048,90,959,340
2374,15218,1226,2690,-182,-42,-4614,-81,302,364
2375,15218,1083,2691,-192,-18,-4088,-113,-35,738
2376,15218,1181,2691,430,288,-3406,574,77,-111
2377,15218,1216,2691,-438,-348,-3252,132,187,452
2378,15218,1112,2690,-488,-32,-3994,-226,-302,635
2379,15230,1124,2690,-56,256,-5998,-588,578,1835
2380,15230,1188,2690,-190,888,-5304,-3,175,-108
2381,15230,1220,2690,52,-88,-4254,352,350,161
2382,15230,1108,2690,166,152,-2492,199,190,1130
2383,15230,1111,2691,-724,-236,-4754,-55,-6,833
2384,15230,1251,2689,-410,330,-2692,-330,-149,603
2385,15230,1150,2690,-476,1492,-4200,32,-515,579
2386,15230,1163,2690,118,-1814,-4180,333,73,564
2387,15230,1179,2690,116,622,-5294,261,197,794
2388,15230,1197,2690,-130,-1192,-4010,142,-422,667
2389,15230,1210,2689,692,-354,-4318,106,-1064,267
2390,15230,1141,2689,362,-2148,-3922,-133,197,1625
2391,15230,1113,2691,70,842,-3426,80,-210,998
2392,15230,1132,2691,-56,1436,-4910,-120,-283,1089
2393,15170,1097,2689,-432,-498,-3478,-97,-162,1074
2394,15170,1057,2690,226,1534,-3974,-84,-60,850
2395,15182,1098,2690,422,-544,-2550,-259,203,880
2396,15182,1138,2691,-324,974,-4926,354,-45,635
2397,15230,1214,2692,28,3210,-5756,9,-44,199
2398,15218,1080,2689,-42,-1016,-2312,16,-336,785
2399,15218,1120,2691,250,-1020,-3070,-133,-695,1154
2400,15230,1156,2690,-118,194,-3266,-317,-388,656
2401,15230,1135,2689,-222,740,-3258,523,-308,582
2402,15230,1223,2690,-684,170,-4862,177,416,841
2403,15218,1180,2691,-352,572,-6342,32,-137,626
2404,15218,1255,2690,-134,-1442,-3014,-233,318,90
2405,15218,1090,2689,-268,-568,-2780,3,223,856
2406,15218,1133,2689,138,-1002,-1878,216,-16,759
2407,15218,1199,2690,-60,-206,-4410,171,-705,1575
2408,15218,1076,2691,202,-136,-5570,-43,447,1198
2409,15218,1217,2689,-330,-922,-3586,19,-105,1036
2410,15230,1109,2691,-18,-1828,-3598,0,152,965
2411,15230,1152,2689,-1194,-1162,-2940,-20,172,1434
2412,15290,1149,2690,-382,48,-2990,174,28,667
2413,15290,1099,2691,-506,-1140,-4884,-55,117,947
2414,15409,1157,2690,-180,-1160,-5650,500,-130,-1985
2415,15409,1097,2689,-166,-830,-1860,-104,32,199
2416,15577,1236,2690,-282,-62,-2972,158,-92,1219
2417,15708,1066,2691,-498,-54,-5134,58,-73,1039
2418,15708,1150,2690,374,-442,-4038,-129,-35,774
2419,15840,1151,2691,-190,-998,-4294,-42,-216,1001
2420,15840,1144,2688,-570,-1592,-2910,-29,-57,877
2421,15864,1176,2690,118,1494,-5356,516,232,812
2422,15864,1102,2691,-556,190,-1916,61,-330,815
2423,15864,1146,2689,368,162,-4484,-198,336,679
2424,15876,1113,2689,4,2270,-3864,-133,-136,841
2425,15876,1136,2689,574,334,-4916,-65,-19,455
2426,15876,1098,2691,-1044,-1008,-3514,503,9,541
2427,15876,1180,2689,-426,162,-4316,142,118,1054
2428,15876,1154,2689,28,1678,-5572,-55,-203,947
2429,15876,1150,2689,-158,888,-4938,-446,225,1263
2430,15887,1124,2690,-128,-180,-3950,-226,-177,856
2431,15887,1162,2690,340,644,-5066,184,-92,877
2432,15887,1168,2690,-604,150,-4886,303,391,494
2433,15876,1075,2691,-230,280,-3884,58,-248,1118
2434,15876,1179,2690,154,-200,-5082,-210,23,915
2435,15887,1012,2690,-448,272,-3626,-336,127,653
2436,15876,1109,2690,-848,1922,-2176,-494,-412,597
2437,15876,1111,2691,-320,-598,-3418,-113,197,1006
2438,15959,1181,2691,-932,1092,-3680,23,153,827
2439,15959,1153,2690,924,-742,-3632,529,397,96
2440,15959,1125,2688,-492,122,-2960,-230,-381,455
2441,15959,1212,2689,-26,262,-4538,-368,-235,611
2442,15935,1123,2691,274,-34,-5344,236,-133,585
2443,15947,1123,2691,110,-748,-4920,64,25,797
2444,15947,1127,2691,-372,454,-3614,-65,-339,270
2445,15947,1124,2690,-196,260,-3408,13,-127,676
2446,15947,1149,2689,-208,-1660,-2744,-165,-193,676
2447,15947,1259,2690,672,2068,-2764,19,333,429
2448,15947,1136,2691,-604,798,-4070,235,175,623
2449,15935,1110,2691,-550,74,-4342,278,-79,623
2450,15876,1167,2690,-856,-154,-4150,-213,461,-629
2451,15876,1083,2690,88,32,-4824,-226,169,547
2452,15720,1209,2690,-306,-38,-3992,-142,651,479
2453,15720,1120,2691,166,-904,-5060,-171,13,231
2454,15529,1295,2689,-518,1162,-5444,-87,-359,942
2455,15529,1042,2689,826,-898,-3520,51,-207,662
2456,15349,1124,2689,-318,1464,-3832,-58,-158,579
2457,15110,1150,2690,10,-76,-4980,232,489,986
2458,15110,1077,2690,-136,-158,-3150,-94,308,514
2459,14919,1200,2688,-156,-148,-4296,-426,254,906
2460,14919,1124,2689,-824,-210,-4484,-94,166,470
2461,14775,1257,2690,-362,-380,-5328,-200,-124,1160
2462,14716,985,2689,-118,146,-3204,-16,63,691
2463,14716,1184,2689,128,-214,-3348,48,-25,986
2464,14752,1131,2689,-998,-450,-2514,-243,-102,936
2465,14752,1105,2689,-340,1360,-4712,161,-480,936
2466,14787,1205,2691,40,36,-5012,158,308,1077
2467,14787,1060,2689,-1026,-308,-3272,52,356,741
2468,14919,1133,2689,150,388,-4590,-142,486,697
2469,15039,1083,2689,-1082,100,-3408,-313,-70,794
2470,15039,1144,2688,-188,1004,-3646,-439,48,718
2471,15039,1138,2691,104,228,-3412,0,-342,782
2472,15039,1294,2689,-416,-48,-4884,397,-371,564
2473,15003,1020,2692,-944,934,-5980,300,41,243
2474,15003,1268,2690,-718,90,-6158,233,-85,1039
2475,14991,1073,2689,-300,534,-6616,-359,280,609
2476,14931,1200,2688,-94,-150,-3128,-33,60,644
2477,14931,1323,2689,-102,-730,-1694,74,223,626
2478,14931,1091,2692,216,-2118,-934,32,-126,1266
2479,14931,1208,2690,-340,-1238,-3016,45,-387,838
2480,14919,1341,2689,154,54,-3066,-175,381,1127
2481,14919,1254,2690,-228,1744,-5442,87,-22,1257
2482,14919,1256,2690,-346,634,-3996,462,343,880
2483,14931,1325,2690,-298,-476,-2924,32,407,673
2484,14931,1292,2690,-584,932,-4676,335,385,508
2485,14931,1248,2689,230,120,-5234,-188,435,1310
2486,14931,1295,2690,-498,756,-2150,-332,-63,1127
2487,14919,1258,2689,-80,-444,-4034,339,44,871
2488,14919,1221,2692,-884,-356,-5952,242,-54,535
2489,14919,1269,2689,-286,-246,-4932,430,302,667
2490,14919,1260,2689,332,-346,-3122,-94,308,570
2491,14919,1234,2690,390,-124,-4336,-42,-54,765
2492,14919,1236,2689,242,-992,-3456,55,3,1033
2493,14919,1359,2691,546,-996,-3070,-20,-102,962
2494,14931,1185,2690,-94,-514,-3678,126,-38,785
2495,14991,1368,2690,-218,4,-5210,7,766,1160
2496,14991,1198,2690,-862,-1002,-2710,7,80,670
2497,15003,1219,2689,348,-320,-3716,-230,25,1006
2498,15003,1223,2690,-630,1756,-3656,-633,-1159,1045
2499,14991,1224,2692,-126,460,-4260,-332,-657,774
2500,14991,1234,2690,-484,-330,-5170,-10,51,992
2501,14991,1200,2688,-760,566,-4176,323,581,1236
