index,servo,motor,gimbal,acc_x,acc_y,acc_z,gyro_x,gyro_y,gyro_z
0,0,0,0,-4,120,-4016,53,5,-57
1,17011,0,2690,-24,-68,-3964,56,39,-57
2,17011,0,2690,-20,10,-3896,14,107,-45
3,17047,0,2691,-38,-56,-3916,-28,-75,-54
4,17047,0,2689,-32,-46,-3874,139,102,-214
5,17047,0,2690,42,-106,-3944,-12,116,-110
6,17047,0,2690,-6,118,-4062,-25,-116,-187
7,17035,0,2690,-32,144,-3920,43,11,-36
8,17035,1,2690,10,-104,-3812,24,37,-60
9,17047,0,2691,6,30,-4036,11,-157,-13
10,17047,0,2690,-30,84,-3930,121,-24,226
11,17047,0,2691,42,-50,-4026,-5,31,2
12,17047,0,2689,-62,-102,-3926,-34,103,79
13,17047,0,2689,-58,94,-3922,-106,-46,11
14,17035,0,2691,24,-132,-3886,-116,-126,-7
15,17035,0,2689,-102,226,-4078,-31,-262,-33
16,17035,0,2688,14,-108,-3812,-19,-18,43
17,17035,0,2690,-4,12,-3896,20,78,-113
18,17035,0,2689,38,-232,-3912,24,145,140
19,17035,0,2689,-64,136,-4064,-106,288,111
20,17035,0,2689,-14,-68,-3914,-28,271,-116
21,17047,0,2688,-76,268,-4024,17,49,67
22,17047,0,2690,-84,-116,-3854,-154,-39,-184
23,17035,0,2691,30,-128,-4000,-3,249,-322
24,17035,0,2690,-48,266,-4008,17,46,-169
25,17035,0,2690,32,-188,-3940,-22,62,-249
26,17035,0,2690,-20,-20,-3918,14,271,-4
27,17035,0,2691,-32,132,-3958,-12,-21,-95
28,17047,0,2688,6,26,-3974,-109,234,90
29,17047,0,2689,-62,74,-3956,-45,259,-249
30,17047,0,2690,0,-6,-3940,-15,284,14
31,17035,0,2690,16,68,-3960,-57,18,28
32,17035,0,2690,-74,-30,-3940,220,201,25
33,17023,0,2689,-18,2,-4018,-109,36,2
34,17023,0,2690,-66,92,-3950,4,-72,191
35,17000,0,2690,-36,-150,-3866,66,237,-72
36,17000,0,2689,6,-104,-3958,-12,59,-69
37,17000,0,2690,-104,230,-3970,-54,-34,99
38,16988,0,2689,-32,40,-3858,17,144,164
39,16988,0,2690,30,-38,-3950,10,-132,238
40,16988,0,2689,-2,-38,-3946,-109,141,205
41,16988,0,2691,-26,32,-3950,-90,398,-240
42,17000,0,2691,-36,8,-3910,-25,-154,-296
43,17000,0,2690,-48,114,-3900,85,37,-98
44,17000,0,2688,58,-32,-3980,111,-65,-272
45,17000,0,2690,-56,150,-3990,27,-186,2
46,17000,0,2689,-52,-144,-3838,95,-160,-199
47,16988,0,2689,2,56,-4078,8,-20,90
48,16988,0,2689,-92,32,-3918,-19,20,-57
49,16988,0,2691,-50,64,-3886,94,-15,235
50,16988,0,2690,2,-44,-3934,123,1,64
51,16988,0,2689,-24,26,-4034,81,-221,193
52,17035,0,2690,-34,24,-3976,-109,-18,64
53,17035,0,2689,-34,-26,-3862,-116,643,-72
54,17035,1,2690,-8,-76,-3944,-9,259,-243
55,17035,0,2690,-62,184,-4070,23,-142,22
56,17035,0,2690,-42,40,-3910,59,144,-84
57,17047,0,2689,32,-174,-4022,-51,-94,76
58,17047,0,2690,-82,48,-4014,23,27,-187
59,17047,0,2691,-76,34,-3850,-28,71,-107
60,17047,1,2690,-60,-24,-3872,46,208,-181
61,17035,0,2690,-86,84,-3956,-35,-68,67
62,17035,0,2691,-26,38,-3988,-116,71,-84
63,17047,0,2690,-44,-72,-3868,-45,-81,-39
64,17047,0,2690,-48,-50,-3960,-54,-62,270
65,17047,0,2690,6,-70,-3970,30,-69,90
66,17035,0,2690,8,40,-3886,71,-40,-90
67,17035,0,2690,2,168,-4008,-80,-99,-28
68,17035,-1,2691,-94,146,-4076,91,17,49
69,17035,22,2690,-64,-66,-4024,-12,37,282
70,17000,164,2689,412,-228,-4244,110,-110,114
71,17000,334,2690,90,-714,-3392,36,20,96
72,17000,325,2690,-104,-570,-2918,-38,97,-151
73,16988,360,2691,-214,662,-3986,-174,-43,-131
74,16988,316,2691,-360,2600,-5346,-187,-272,146
75,16976,330,2690,46,1266,-2450,-86,132,137
76,16976,590,2689,156,2602,-6802,-12,170,46
77,16976,481,2689,-138,2396,-4346,-90,182,173
78,16964,594,2688,-1150,3048,-3062,-467,506,-196
79,16964,684,2689,-1186,1860,-2278,-8,475,-579
80,16976,732,2690,-1972,2512,-3068,226,-155,-140
81,16976,856,2690,26,1946,-2800,20,-24,-81
82,16964,901,2690,-122,2512,-1580,-193,-481,924
83,16976,952,2690,-782,1444,-1938,679,-408,-476
84,16976,1040,2689,1716,3982,-8032,-335,59,-39
85,16964,952,2691,778,1954,-7388,-122,-15,-375
86,16964,842,2689,-1052,4454,-5878,-22,-332,370
87,16964,1001,2686,538,2712,-4010,-532,180,-201
88,16964,904,2690,1430,-1050,-4098,388,274,379
89,16988,1026,2691,478,2330,-4752,379,513,-296
90,16976,922,2690,-300,-922,-3678,94,170,-128
91,16976,1076,2688,366,798,-5370,217,84,-479
92,16976,1040,2690,-204,352,-3280,43,-164,-63
93,16976,957,2689,-458,3068,-3638,-264,-271,-19
94,17000,1084,2690,282,962,-2630,149,-151,-331
95,17000,1232,2688,-1958,4108,-1994,-632,-14,-54
96,16988,1130,2690,-1316,2110,-5422,-435,-93,-128
97,16988,1203,2690,-598,-458,-4612,214,62,-311
98,16988,1371,2689,-224,-906,-4430,-112,459,-888
99,16988,1114,2688,-608,2312,-5354,114,142,-372
100,16988,1250,2689,478,1578,-5250,-122,-294,-225
101,17047,1291,2690,1130,1568,-3796,56,208,-372
102,17047,1250,2690,552,3772,-3980,23,313,-408
103,17047,1367,2690,434,418,-3896,404,-138,-985
104,17047,1311,2690,320,-656,-5690,-64,-8,267
105,17047,1313,2690,-716,834,-4024,88,300,397
106,17047,1364,2689,496,1492,-4618,143,-72,20
107,17047,1315,2689,-116,-54,-3588,91,-544,-443
108,17047,1298,2690,208,-410,-5362,-271,239,-25
109,17035,1366,2690,70,-754,-5590,-245,1,61
110,17035,1340,2689,256,-1042,-1488,62,55,-564
111,17047,1290,2689,34,478,-3440,485,-186,158
112,17047,1414,2690,678,28,-5598,179,-293,90
113,17035,1329,2691,936,-944,-2472,-332,-252,789
114,17035,1366,2690,236,1822,-5030,-787,113,683
115,17035,1417,2688,432,2280,-4094,-254,-281,-358
116,17035,1397,2690,-1046,3164,-3638,385,-706,-423
117,17035,1395,2692,-86,1784,-6328,511,147,-529
118,17047,1407,2688,-526,948,-654,-261,-84,258
119,17047,1438,2688,238,-628,-5044,143,-34,-381
120,17047,1447,2690,622,598,-7004,-67,27,-154
121,17047,1523,2689,448,1746,-7244,-409,-205,-22
122,17035,1533,2689,566,26,-3408,236,81,-638
123,17047,1610,2690,-862,-434,-2458,-173,-376,-358
124,17047,1565,2689,-548,-242,-4018,33,-30,-558
125,17035,1583,2690,-284,-2080,-2298,417,33,-552
126,17035,1624,2689,-90,148,-3764,-12,-341,-81
127,17047,1600,2689,-1298,1000,-906,-151,-40,132
128,17047,1679,2688,542,218,-4186,-22,-151,-7
129,17035,1615,2689,82,-546,-4108,81,382,429
130,17047,1604,2690,-208,304,-1632,14,154,683
131,17047,1715,2690,-170,-1242,-5180,249,-15,-434
132,17047,1570,2689,-118,1188,-2982,4,154,-193
133,17047,1740,2689,-712,-2234,-3034,-15,243,46
134,17047,1622,2689,296,156,-4706,175,-202,-1301
135,17047,1646,2689,-586,1426,-4128,-135,34,-81
136,17047,1723,2691,-344,1158,-4510,17,437,-293
137,17035,1836,2690,-24,2798,-7026,-277,-224,-255
138,17035,1452,2689,358,-120,-2758,-312,554,-19
139,17035,1845,2689,-48,1340,-4606,121,278,1172
140,17035,1641,2689,-758,-292,-4666,-74,-253,-231
141,17047,1636,2689,304,1880,-5530,-180,-361,-405
142,17035,1887,2690,-518,-652,-3870,14,-37,417
143,17035,1509,2690,316,-818,-4100,-271,574,-193
144,17035,1762,2688,552,-1164,-3774,-577,-11,-137
145,17035,1758,2689,-136,-692,-2966,-103,278,-178
146,16988,1563,2690,496,-846,-3848,59,-110,-1766
147,16988,1651,2689,448,-842,-4092,175,-434,-859
148,16988,1666,2691,802,-1860,-5202,85,46,-63
149,17000,1709,2689,-1204,-316,-2358,-161,-437,-222
150,17000,1809,2688,-702,2316,-4012,11,577,-591
151,17000,1673,2689,658,3296,-7048,-170,-170,-873
152,17000,1707,2689,-1704,-1502,950,91,-237,-564
153,17000,1684,2690,4,642,-5618,30,687,193
154,17000,1869,2690,-32,1536,-5776,-513,24,-137
155,16988,1680,2688,244,-520,-632,-28,250,-196
156,17000,1710,2689,2028,2578,-3242,-125,-278,-573
157,17000,1855,2689,-1302,836,-2550,-467,123,-169
158,16988,1742,2689,1162,148,-1912,240,74,-705
159,16988,1781,2689,-2332,1632,-2360,-15,100,-302
160,16988,1811,2688,1464,-1590,-5404,36,154,-119
161,16988,1830,2689,-940,1946,-3540,-322,-306,-275
162,16988,1843,2690,-726,2686,-3232,-499,234,-81
163,17000,1955,2688,-1006,1550,-1586,211,570,-688
164,17000,1687,2690,1626,-1612,-7810,437,205,-759
165,17000,1810,2690,1132,1620,-4886,617,430,-529
166,17000,1755,2689,250,-518,-2876,-177,-525,-266
167,16988,1926,2690,180,28,-2826,-241,-56,-1466
168,16988,1769,2688,1064,1562,-6018,33,11,-523
169,16988,1841,2689,-44,-1014,-4036,159,-24,-293
170,16988,1800,2692,1930,2800,-7086,375,-307,-956
171,16988,2111,2690,-500,-1184,-2922,-99,-75,385
172,17000,1789,2688,438,2098,-5184,124,-185,518
173,17000,1624,2689,-154,-1002,-5166,-92,-163,-284
174,16988,1853,2689,114,-2126,-2444,94,-126,-540
175,17000,1821,2690,70,1112,-6684,227,168,-110
176,17000,1832,2690,-556,1168,-3368,-158,284,267
177,17000,1737,2689,300,-980,-4490,-261,110,2
178,17000,1849,2689,588,494,-3930,-96,786,-402
179,17000,1846,2690,-840,202,-3710,-190,-942,-148
180,17000,1774,2692,44,-264,-2926,-154,659,61
181,16988,2005,2690,14,772,-8550,-377,-465,-201
182,17000,1570,2689,446,1376,-4252,-193,287,-110
183,17000,1905,2690,666,2250,-4148,-338,-882,-529
184,17000,1916,2691,-722,1480,-3226,-225,-91,-496
185,17000,1836,2690,-396,-882,-386,-322,-319,311
186,16988,1852,2690,-1784,1948,-2698,-116,316,470
187,16988,1972,2689,1192,-2332,-3006,150,158,-308
188,17000,1890,2691,808,680,-4136,-51,195,-479
189,17000,1811,2691,-788,-1960,-5152,-429,-46,-89
190,17000,2147,2688,1638,-548,-3696,311,227,-3685
191,16988,2062,2689,316,1006,178,-119,-996,-117
192,16988,2029,2690,754,2812,-1912,201,-119,429
193,16988,1996,2688,1500,1758,-4154,256,-497,-487
194,16988,2229,2690,768,1530,-4616,-351,941,-196
195,17000,1952,2690,-1526,-828,-1588,446,-40,-1148
196,17000,2163,2689,-2020,1630,1762,224,-347,-319
197,17000,2155,2690,2418,452,-2862,-287,-348,25
198,17000,2057,2689,244,-1786,-3882,185,180,161
199,17000,2223,2689,1082,-2810,-5334,320,548,1019
200,16988,2119,2689,-308,1512,-2664,-41,567,-664
201,16988,2120,2689,382,726,-1672,-445,-154,-1227
202,16988,2035,2692,56,2106,-3216,356,-192,-1047
203,17000,2077,2690,302,132,-2970,-102,91,179
204,17000,1941,2689,-734,-1098,-1726,17,84,-820
205,17000,2093,2690,1038,-1228,-7898,-258,-247,-408
206,17000,2085,2689,472,-368,-7238,-177,481,-355
207,17000,2082,2690,-934,-484,-4724,27,-284,176
208,17000,2151,2689,38,-1910,-2596,282,-287,-806
209,17000,2099,2690,50,-146,-3418,85,-37,615
210,17000,2219,2690,-48,850,-2214,1,478,703
211,17000,2270,2688,-340,138,-5378,-8,-62,185
212,17000,2027,2689,16,-986,-6204,-118,246,-234
213,17000,2128,2690,-204,-188,-4958,146,-1014,-1183
214,16988,2243,2690,126,-2212,-1032,-125,-434,-157
215,16976,1967,2689,-122,-658,-2058,75,138,-72
216,16976,1965,2689,-1064,142,-2238,-57,91,238
217,16964,2112,2689,92,-738,-4114,-335,-141,-617
218,16964,2048,2690,-1868,-586,-5110,-477,576,-573
219,16976,2059,2689,-28,1936,-4576,-193,-256,-1201
220,16976,2124,2690,-452,1866,-3868,43,-329,-921
221,16964,2002,2688,722,-454,-3498,356,-418,-835
222,16916,1923,2690,562,-302,-2772,233,-40,-1531
223,16916,2041,2689,62,-28,-2408,-216,21,-134
224,16904,1927,2690,-994,-790,-4220,-28,-687,-567
225,16904,2108,2689,688,-228,-7016,127,-195,-284
226,16868,1943,2690,-96,-1648,-3248,-148,-37,-63
227,16904,2231,2689,-1680,-820,-3496,-293,630,1072
228,16904,2071,2691,-48,-232,-5018,-96,-167,-378
229,16964,2064,2689,586,-248,-5702,-15,294,627
230,16964,1776,2690,806,-464,-5374,140,-414,361
231,16964,2298,2690,-568,-76,-4504,-196,-164,-1864
232,16964,1731,2690,-534,-458,-3760,-180,-116,288
233,16964,2267,2691,-758,-1830,-2634,-89,91,373
234,16964,1677,2690,482,-1020,-3180,-112,59,5
235,16964,2078,2690,-1048,-2272,-4630,-590,-593,-378
236,16964,1903,2691,-504,452,-3130,-80,20,-125
237,16964,2274,2690,-1210,-784,-5392,-270,91,-1961
238,16964,1812,2689,3254,406,-5988,143,-415,-868
239,16964,2009,2688,-1114,-36,-1060,-90,-453,-434
240,16964,1962,2690,-548,1380,-3258,-354,402,-417
241,16892,1869,2689,-368,4114,-4604,-267,487,-325
242,16892,2252,2690,-2004,458,-5348,-732,-138,-440
243,16736,1818,2689,-1342,664,-4488,-2,850,1084
244,16736,2137,2689,2460,-1876,-6486,146,-52,432
245,16306,2258,2689,-528,-1200,-6324,414,176,152
246,16306,1882,2689,-340,1884,-3766,372,-113,326
247,16031,2056,2690,1104,-758,-5932,-183,-691,-190
248,15864,2049,2689,-1792,2946,-5360,-248,287,524
249,15864,2126,2688,-444,-2308,-2766,-38,-789,980
250,15887,2029,2687,-810,1536,-6402,46,300,862
251,15887,2369,2689,-648,2530,-3712,-18,266,394
252,15983,1962,2689,-616,2604,-5772,-174,538,1042
253,15983,2051,2689,2600,3170,-7398,-296,-239,1030
254,16079,2195,2690,544,-708,-5418,-48,8,-75
255,16174,2288,2690,992,-44,-7756,589,-941,633
256,16174,1822,2689,-1986,-1886,-3058,391,459,456
257,16282,2161,2689,-962,1940,-4908,-238,285,721
258,16282,2134,2689,424,-2442,-2980,276,-81,-157
259,16282,2132,2690,1062,-1048,-5326,153,-36,23
260,16270,2032,2691,-790,-762,-4094,-15,627,356
261,16270,2163,2689,202,1956,-4680,-271,573,55
262,16234,2241,2689,-94,-786,-5712,-148,449,-119
263,16234,2156,2690,26,-2744,-3304,130,-300,76
264,15935,2142,2691,-604,-312,-3346,33,-614,1060
265,15935,2188,2691,-1018,2862,-4670,285,103,323
266,15481,2110,2690,1572,-576,-5834,-212,637,-222
267,15074,2138,2689,-1098,-894,-7858,62,-958,518
268,15074,2145,2689,-2486,334,-2762,640,360,-1722
269,14943,2181,2688,176,1018,-4118,220,-652,-169
270,14943,2108,2689,-1012,-2274,-3090,249,-342,1726
271,14955,2162,2689,-644,-1088,-5092,240,-487,1555
272,14955,2054,2688,-544,826,-2936,-48,15,1269
273,15146,2090,2688,-804,-64,-4532,49,-328,1499
274,15828,2031,2692,-148,-44,-7296,314,201,1682
275,15828,2077,2691,214,-1288,-4008,156,190,394
276,16868,2201,2689,-1954,1582,-6866,-3,201,1694
277,16868,1709,2690,-1194,196,-2290,-273,599,995
278,17047,2036,2690,858,-228,684,479,-151,-405
279,17047,2082,2691,1734,-1580,-6028,-70,271,81
280,17035,2007,2691,382,1338,-4086,-413,509,2593
281,17035,1962,2691,1026,-1778,-4962,172,-358,406
282,17035,2043,2689,-888,1568,-378,-309,-65,2616
283,17035,1915,2690,1184,566,-7872,381,353,1295
284,17035,2163,2690,1362,776,-5158,-41,-370,1266
285,17047,2027,2689,-378,1496,-4338,-93,81,547
286,17047,2174,2689,566,-24,-4854,-190,-202,-579
287,17047,1801,2689,-308,-912,-5638,188,595,182
288,17035,1899,2691,-544,-786,-3416,-329,-593,774
289,17035,2289,2690,-186,1240,-2708,520,224,-278
290,17035,2125,2690,500,1938,-2258,221,-68,1455
291,17035,1865,2689,570,-322,-5936,404,-8,79
292,17047,2028,2690,1278,1580,-6458,-609,252,-1153
293,17035,2073,2690,1182,488,-4982,243,74,-33
294,17035,1971,2689,1388,-310,-7264,140,167,1086
295,17047,2006,2690,1386,-1128,-5830,256,-453,108
296,17047,2022,2690,1244,1950,-8826,663,97,-178
297,17035,2006,2688,472,-400,-6454,-41,500,-266
298,17035,2056,2689,-1460,884,-1108,-63,-315,3656
299,17047,1947,2690,-496,-216,-4330,-57,-172,771
300,17047,2084,2688,-236,944,-4066,-425,253,759
301,17047,2088,2691,-64,1098,-3028,630,309,146
302,17035,2031,2690,-1468,794,-3422,-38,977,14
303,17035,2119,2690,1484,-118,-6004,-57,266,217
304,17035,2116,2689,-358,664,-4834,-380,202,1140
305,17035,2070,2689,-982,-304,-3028,-67,30,332
306,17047,2085,2688,-1382,1060,-3358,-128,-300,205
307,17000,2065,2689,-536,578,-2876,81,-630,-160
308,17000,2078,2689,310,-1258,-1468,78,195,370
309,17000,2008,2690,-414,-398,-2100,179,62,-328
310,17000,2065,2690,-1560,-1476,-2442,-170,211,618
311,16976,2247,2688,698,-404,-3396,182,-316,55
312,16976,2013,2690,566,220,-4808,-119,351,-2527
313,16880,2093,2690,428,586,-5558,75,-46,-210
314,16629,2040,2689,154,668,-5262,-106,424,347
315,16629,1988,2691,-1418,802,-1816,-45,151,-28
316,16174,2068,2689,742,2064,-3196,-67,-550,674
317,16174,2158,2689,-64,408,-4830,-203,-14,25
318,15696,2196,2690,1164,670,-5774,-225,62,70
319,15062,1976,2690,-1784,154,-4220,-122,-882,317
320,15062,2049,2690,-906,1564,-4490,305,-370,1084
321,14919,2107,2689,-2774,532,-3882,-377,-373,877
322,14919,2260,2689,-728,-1010,-3790,-234,295,1644
323,15062,1971,2688,-874,-1288,-3440,-158,-666,1248
324,15062,2278,2688,-632,-636,-2778,-92,345,898
325,15122,1826,2689,-584,-1498,-3972,250,-39,742
326,15720,2266,2689,-1090,560,-2890,49,87,1148
327,15720,1862,2689,228,1578,-1846,-122,376,1154
328,16174,2233,2689,162,2166,-4080,-303,246,-1601
329,16174,1873,2688,168,-228,-4968,43,-53,792
330,16892,2125,2691,-816,-566,-5962,-12,122,279
331,16892,2147,2690,-458,-640,-4006,262,589,783
332,16988,2019,2688,1842,-82,-6604,120,-685,562
333,17047,1872,2689,610,82,-2852,23,-5,553
334,17047,2113,2690,-1124,1998,-3210,-626,77,1861
335,17047,2176,2691,374,-490,-3808,-209,-407,916
336,17047,2033,2691,-448,146,-4862,-432,414,249
337,17035,2098,2690,1094,66,-5578,-258,170,-249
338,17035,2035,2688,-1138,-2324,-2566,146,592,-216
339,17035,1912,2689,312,-2310,-2366,233,-161,-499
340,16976,2083,2690,-1076,-544,-3076,56,117,-369
341,16976,2213,2692,-968,-376,-2824,-2,60,-322
342,16976,1879,2690,-4,628,-2696,188,-154,-1778
343,16976,2109,2690,962,-862,-5166,-280,-207,143
344,16808,2058,2689,-156,-644,-3398,-135,246,-240
345,16282,2096,2690,508,1426,-5530,-35,243,5
346,16282,2007,2689,-246,1172,-5628,-299,85,-582
347,15720,2087,2689,-366,842,-4254,-335,-109,-4
348,15720,2017,2690,1908,-636,-3354,-45,-199,824
349,15062,2188,2689,3602,2300,-6350,-551,434,462
350,15062,2008,2689,-5168,1240,-458,46,-942,503
351,14465,2179,2690,864,946,-8924,-267,742,553
352,14130,1987,2689,-1326,-370,-3356,-122,87,1022
353,14130,2066,2689,294,718,-4056,-335,-49,1420
354,14130,2047,2688,-1054,2122,-3204,59,5,1962
355,14130,2062,2689,-2272,-1420,-4956,198,-424,1148
356,14417,2043,2690,-2430,-1204,-2866,82,596,1700
357,14417,2067,2687,-2008,240,-2094,-503,-411,2242
358,14931,2052,2688,200,-1878,-2966,94,691,1676
359,15230,2092,2690,672,346,-4592,440,-268,409
360,15230,2083,2689,-834,-1430,-3728,30,-890,2336
361,15146,2097,2689,-650,-832,-5088,-154,771,1646
362,15146,2182,2690,100,2134,-2314,211,-91,2265
363,14919,2172,2687,760,-1674,-4296,-35,-217,1449
364,14919,2121,2689,-206,2568,-5990,-519,46,2395
365,14692,2213,2691,-2612,-674,356,717,-1101,1322
366,14572,2144,2689,-586,294,-5654,130,66,1390
367,14572,2248,2688,-1118,1004,-2400,1,262,276
368,14548,2294,2688,2276,1452,-8176,208,431,600
369,14548,2246,2689,-1584,132,-1116,-365,-152,1720
370,14584,2279,2689,-1508,1840,-2342,-154,-920,1909
371,14584,2283,2691,-2138,-1526,-1978,384,-361,2123
372,14728,2366,2690,-1884,1314,-4870,-322,389,1175
373,15062,2235,2689,-1122,-1530,-2858,569,-148,1523
374,15062,2313,2690,-2932,2556,-6848,124,1139,556
375,15624,2168,2691,204,-32,-818,-51,-1253,1487
376,15624,2197,2689,-1160,190,-4404,1011,668,1408
377,16402,2152,2690,-996,1176,-5318,-300,-751,1767
378,16988,2089,2690,1394,-3222,482,763,1167,5369
379,16988,2170,2688,5806,-1884,-6822,-47,-827,291
380,17047,2157,2691,-1710,-1124,-5146,-745,881,680
381,17047,1971,2692,1946,222,-6748,117,678,-51
382,17047,2341,2689,-2116,-130,-3536,-112,-269,-1068
383,17047,2036,2688,432,-192,-4222,30,421,-1006
384,17035,2207,2692,-114,-2146,-1770,434,-217,-2052
385,17047,2115,2689,-832,728,-3698,20,-224,892
386,17047,2037,2690,-362,-796,-664,194,-123,1177
387,17035,2153,2689,118,116,-4056,-96,-275,367
388,17035,2060,2689,1376,-336,-4296,-455,-830,3288
389,17047,2254,2691,248,590,-3640,476,262,303
390,17047,1834,2691,-1050,812,-1706,194,-43,-178
391,17035,2290,2689,-212,-826,-3612,75,-739,-255
392,17047,1873,2689,-576,-604,-4672,-44,291,-257
393,17047,4145,2689,-1768,-50,-1808,-609,-1002,2522
394,17047,2024,2689,-1128,1306,-3608,14,-62,1540
395,17047,2296,2691,1100,-2792,-4520,498,443,379
396,17035,1926,2690,684,-380,-5942,62,103,1219
397,17035,2130,2691,-546,-854,-3770,-164,370,-104
398,17047,2062,2691,-744,222,-2412,-267,-300,671
399,17035,2108,2690,-1146,-206,-4432,-300,-113,338
400,17035,2053,2689,300,-934,-3590,-19,-427,1104
401,17047,2106,2690,-428,128,-1410,336,-561,4119
402,17047,2123,2690,636,634,-5830,-48,182,-1808
403,17047,2086,2691,-814,1226,-3538,-496,101,-95
404,17047,2174,2691,-1206,-1386,-2760,-332,280,850
405,17047,2162,2689,-262,-728,-3314,-25,-545,426
406,17035,1903,2691,236,-2772,-3614,-300,21,-1103
407,17035,2178,2689,-522,-2412,-6468,-425,104,700
408,17035,2037,2689,-14,-1084,-2666,117,-516,-561
409,17035,2151,2690,-1856,-800,-5190,-154,-65,249
410,17000,2137,2689,2,644,-3016,-486,-544,-1156
411,17000,2272,2689,-430,2040,-5006,-112,-84,-582
412,17000,2048,2691,-122,-2568,-1386,149,-36,-358
413,16988,2246,2690,-272,-1500,-4046,-216,52,910
414,16988,2175,2690,-136,-1068,-3526,-25,-402,-935
415,16976,2039,2691,-322,500,-5116,-57,-262,2625
416,16976,1969,2691,-1588,-750,-2152,-212,-49,-87
417,16976,2092,2691,-280,1264,-4800,-542,-462,1443
418,16928,2091,2690,1208,-2460,-4598,-603,688,311
419,16928,2094,2690,210,-1456,-4784,-48,170,1016
420,16808,2251,2688,-1846,802,-3552,301,414,46
421,16808,2054,2691,236,1184,-3264,385,-237,-113
422,16748,2148,2690,-140,3766,-3916,-96,-271,839
423,16748,2061,2689,-272,-878,-1032,-180,-81,8
424,16701,2130,2690,-692,316,-1584,-248,-97,-794
425,16856,2045,2689,198,644,-3134,88,310,-28
426,16856,2203,2689,190,-638,-2970,-173,-837,2501
427,16964,2076,2689,-1784,882,-874,536,-37,555
428,16964,2175,2689,386,-2362,-2312,110,-411,394
429,17047,2072,2689,904,1594,-5878,-206,481,494
430,17047,2130,2691,-790,446,-3248,-619,-774,-1
431,17047,2094,2689,-544,1580,-3166,-316,-75,-90
432,17047,2161,2690,-410,592,-4696,372,119,96
433,17047,2178,2689,-6,-1238,-4624,-116,-265,373
434,17047,2113,2689,-566,-1852,-3654,-135,-15,300
435,17047,2103,2689,-1110,-260,-1486,-154,481,329
436,17035,2066,2691,-272,-452,-3344,272,-669,-337
437,17047,1982,2690,-676,1756,-4562,-15,688,297
438,17047,2210,2689,-148,-2300,-6760,-474,662,1820
439,17023,2035,2689,2262,-48,-5030,-180,288,-69
440,17023,2329,2689,-106,342,-5590,-116,-18,762
441,17023,1743,2690,134,-336,-2582,-6,-142,387
442,17023,2233,2691,100,-302,-1696,-193,-1221,235
443,17000,1977,2689,580,-952,-4078,-319,208,-169
444,16964,2271,2689,620,234,-6162,240,53,117
445,16964,1990,2689,-1702,-470,-1892,214,805,426
446,16964,2042,2689,340,-18,-2488,294,122,-143
447,16964,2060,2690,142,758,-5198,-238,605,123
448,16820,2283,2688,-1086,1204,-2206,-225,-456,-726
449,16820,1773,2690,678,858,-3082,-32,271,-517
450,16497,2190,2690,1108,-22,-2440,82,-525,102
451,16031,1968,2690,354,48,-3502,110,360,-255
452,16031,2140,2689,-356,2022,-2850,-57,573,52
453,15696,2206,2689,-3602,-1406,1082,72,-558,-110
454,15696,2061,2688,-1380,-1294,-2696,252,-631,2073
455,15254,1996,2691,-584,794,-4960,459,-220,223
456,15254,2106,2689,-404,-214,-4964,333,611,-1248
457,15230,2126,2689,-650,-636,-3800,172,-30,736
458,15349,2058,2690,-300,-484,-4664,218,-226,5
459,15349,2143,2689,-1294,1966,-3506,-64,-986,1856
460,15708,2086,2689,-302,1630,-4038,195,1355,1098
461,15708,2173,2689,-716,-2248,-5046,-345,135,621
462,15852,2132,2689,-110,-296,-5816,317,706,966
463,15756,2157,2690,-2098,1372,-2146,530,-614,724
464,15756,2162,2690,380,1132,-2540,446,-634,798
465,15409,2183,2689,1260,-698,-9112,-35,-332,1113
466,15409,2163,2689,-1248,288,-3052,-419,-84,771
467,15122,2190,2688,460,522,-7224,72,460,1116
468,15122,2254,2690,-1296,-634,-1554,-187,-310,877
469,15051,2135,2688,138,2700,-4474,-74,195,1343
470,14883,2306,2689,-1672,-542,-3980,227,-309,1089
471,14883,2339,2690,-1336,-700,-4906,269,68,1196
472,14405,1831,2688,-1324,256,-5226,-374,132,2663
473,14405,2197,2689,1240,-866,-2768,91,144,199
474,13891,2333,2690,-1124,-1104,-2008,266,250,1131
475,13891,1979,2691,38,-1088,-4330,17,-723,1915
476,13556,2008,2689,-1292,-970,-5464,191,328,1602
477,13377,2149,2690,-3106,1026,-2800,-371,-183,5419
478,13377,2302,2689,1440,-734,-2760,-613,-272,1735
479,13496,2069,2690,-944,-1282,-1914,265,-516,2183
480,13496,2005,2690,-1152,-1352,-4986,-28,1945,4323
481,13962,2178,2689,-912,1400,-5714,262,-1675,2937
482,13962,2189,2690,-3340,1644,-5986,-209,427,3945
483,15074,2074,2689,-3372,-1980,-3920,-51,455,3135
484,16043,2117,2688,420,-1696,-5488,-99,777,1791
485,16043,1999,2689,-100,-826,-2668,-12,-52,2130
486,16976,2120,2693,-920,-768,-6016,-128,1098,1564
487,16976,2112,2691,3196,-616,-3030,194,471,886
488,17047,2043,2690,-1288,212,-640,-64,-732,1063
489,17047,2136,2691,2388,-440,-6432,-345,386,1210
490,17047,1964,2691,1548,-938,-7436,-15,-307,391
491,17047,2462,2691,-464,-1024,-5012,-109,-472,526
492,17047,1936,2688,-1612,-304,-2462,272,344,-1139
493,16976,1988,2689,-498,-324,-3988,163,161,176
494,16976,2102,2689,-1032,-240,-58,-561,333,591
495,16856,1951,2689,60,-2222,-2638,85,447,556
496,15971,2100,2691,184,-3102,-5302,-67,-827,-1976
497,15971,1922,2690,-226,-1950,-3312,110,-507,-458
498,15051,2153,2688,-164,-258,-2726,-48,-720,515
499,15051,2305,2689,690,-720,-5294,-80,-84,-145
500,14309,2058,2690,-2366,-1646,-2604,191,-1107,432
501,14309,2276,2689,-1134,122,-3608,-671,-1072,1956
502,13879,2255,2690,-5058,1940,-5000,-1268,-1374,1682
503,13783,2043,2687,-158,-1070,-3872,-67,764,2201
504,13783,1998,2687,-64,-1646,-4336,-496,-897,1646
505,14070,2246,2688,-2562,1772,-4798,-164,-332,2982
506,14070,2064,2690,-232,1250,-2688,369,320,2819
507,14775,2074,2690,-2260,1092,-2666,94,-437,2106
508,14775,2041,2689,60,-812,-2914,795,913,697
509,15505,2046,2690,-1028,1684,-6640,-325,-347,2336
510,16306,2057,2691,2206,-1996,-6934,-548,-255,2292
511,16306,2203,2689,1766,-1084,-4238,282,303,291
512,16964,2083,2689,16,-384,-398,143,437,1075
513,16964,2090,2689,-162,-130,-1620,378,-389,382
514,16964,2104,2690,2854,-1270,-2642,308,237,409
515,16964,2170,2690,2808,-1856,-10222,-438,-535,1490
516,17000,2130,2689,782,394,-4526,343,665,-240
517,17035,2167,2689,-392,3264,-5868,98,465,-175
518,17035,2132,2690,-54,1152,-3534,175,-310,226
519,16988,2126,2689,860,-1742,-4300,285,-233,-228
520,16988,2120,2690,-1574,1006,-4392,-25,205,-181
521,16976,2132,2689,-2080,-128,-2016,14,-351,17
522,16820,2163,2691,-94,-116,-3788,127,138,-449
523,16820,2148,2689,860,194,-6186,104,-192,-537
524,16210,2171,2689,176,46,-4330,856,507,117
525,16210,2093,2688,-1068,1158,406,378,-1186,-193
526,15708,2163,2689,-1154,-138,-374,-128,341,-160
527,15708,2318,2689,2040,1568,-7640,-331,-421,90
528,15062,2024,2688,4694,402,-4838,-745,1316,1036
529,14536,2045,2690,-4394,1244,-3410,1099,-738,-378
530,14536,2169,2690,-728,1756,-5794,304,964,1888
531,14106,2055,2688,1588,-1244,-2000,-12,-739,1950
532,14106,2233,2687,-880,-1900,-5264,-77,227,2230
533,14022,1971,2688,-746,-396,-2530,233,278,2056
534,14022,2238,2691,-2236,-450,-902,375,-259,394
535,14010,1962,2688,-1152,-1012,-6534,110,-125,1806
536,14082,2075,2689,-426,-2288,-5044,401,459,2525
537,14082,2147,2690,376,-1460,-6584,88,1313,294
538,14082,2012,2689,380,6,-3252,-538,43,2115
539,14082,2039,2692,-1870,-118,-2440,-351,-278,1163
540,13974,2109,2692,-1226,0,86,-348,-297,2560
541,13974,2025,2690,-1516,1018,-5128,-287,-558,2248
542,13747,2028,2689,-1376,-74,-2862,-390,1322,889
543,13173,2082,2691,-2396,-2074,-3840,88,123,1210
544,13173,2151,2690,378,-1790,-3978,-99,-1174,571
545,12683,2138,2690,-2742,-1046,-5012,-271,-135,3085
546,12683,2154,2690,-314,1920,-1280,107,278,1826
547,12121,2150,2689,-922,-280,-2796,427,-1199,2646
548,12121,2067,2688,-1174,-1714,-5842,-96,-615,3636
549,11750,2133,2689,-3518,-2348,-2458,-116,363,3860
550,11655,2146,2689,-2056,-688,-512,-567,485,3751
551,11655,2139,2688,280,-1594,-4276,46,564,3450
552,11655,2127,2691,-1354,-1574,-2470,278,-805,3863
553,11655,2091,2691,-3230,-2192,-4432,469,-614,3816
554,11667,2086,2689,-3800,788,-3970,30,659,4776
555,11750,2175,2689,-1156,1644,-4048,-109,-720,4971
556,11750,2288,2687,-1898,-194,-4236,-332,-192,4847
557,11750,1991,2690,-1240,-752,-3276,72,-271,5104
558,11750,2301,2690,-3878,718,-5656,52,-427,6501
559,11726,2030,2690,-3340,1576,-1172,-190,46,4859
560,11726,2069,2689,-1446,-676,-5398,233,-116,4305
561,11750,2068,2691,-728,-1130,-5006,-54,-618,4670
562,11966,2139,2688,-2962,566,-4936,-206,764,4066
563,11966,2145,2689,-1770,1304,-1612,27,-208,4467
564,12695,2119,2689,-3690,1860,-6208,324,8,4676
565,12695,2021,2689,1208,224,-6292,140,218,4243
566,13556,2087,2690,-2844,-1270,-4784,-396,192,4900
567,13556,2130,2688,214,-896,-4186,194,125,4255
568,14871,2104,2688,-826,1146,-3758,224,-668,3724
569,16210,2182,2691,2580,2892,-5230,-251,-20,3421
570,16210,2128,2691,1648,252,-2856,614,138,2483
571,17000,2068,2691,2992,-716,-3830,165,852,1016
572,17000,2124,2690,1446,-1074,-4766,-154,8,1434
573,17035,2213,2690,906,1970,-1922,136,-183,512
574,17035,2210,2689,1410,-1360,-7078,-183,-1103,347
575,17047,2133,2690,-1666,1616,-4450,-377,205,653
576,17035,2257,2689,114,1960,-4592,-173,-264,647
577,17035,2373,2687,-2208,1252,-4512,-73,469,-95
578,17035,2117,2689,356,-780,-5138,7,-221,-151
579,17035,2309,2691,-324,116,-3074,91,891,114
580,17035,2087,2689,-530,-1332,-2444,-187,198,476
581,17035,1942,2690,320,1372,-1824,104,303,223
582,17035,2507,2692,-528,1690,-6650,249,74,656
583,17047,2149,2690,542,-234,-7614,-280,-306,529
584,17047,2226,2690,-2254,1496,-3534,-561,-7,308
585,17047,1992,2689,1180,-2312,-4880,-187,-246,-652
586,17047,2393,2689,490,236,-6764,-170,684,-207
587,17035,1965,2689,-1530,-1564,1132,14,30,-113
588,17035,2237,2689,1584,562,-2282,-316,-1449,376
589,17035,2195,2690,208,-606,-3906,-625,231,1337
590,17047,2180,2692,568,2138,-6848,-444,834,1411
591,17047,2303,2689,-74,-726,-1608,-218,-68,1520
592,17047,2251,2687,-500,-2856,-2744,-25,-151,403
593,17047,1978,2691,-824,766,-2076,23,-164,-508
594,17047,2267,2689,-2022,1804,-1300,-170,779,-381
595,17035,2116,2692,950,1172,-4616,-293,761,34
596,17035,2084,2688,838,-1356,-3822,-212,-65,117
597,17047,2128,2690,-694,1204,-4174,-428,-592,40
598,17047,2070,2692,508,1660,-4264,-96,637,1063
599,17035,1919,2690,-1174,1516,-2014,604,-992,370
600,17035,2160,2689,-88,-946,-4214,-277,-198,-437
601,17107,2163,2692,1898,-712,-4160,443,-424,-1286
602,17131,2093,2688,234,890,-5662,-138,-570,185
603,17131,2280,2689,290,932,-2432,-81,-129,532
604,17131,2027,2690,-502,830,-6700,1047,-588,2
605,17131,1993,2690,-34,972,-5006,217,-389,1638
606,17131,2064,2690,-1608,-580,-1860,36,360,1641
607,17131,2030,2689,366,-1102,-5722,-89,94,653
608,17131,2086,2689,-158,-1754,-2642,-487,-418,1134
609,17131,2140,2690,1648,-1702,-1334,-125,513,2089
610,17131,2053,2689,-1124,960,-4510,-19,-563,1128
611,17143,2214,2690,-590,-588,-4082,-225,1053,969
612,17143,2080,2689,-186,1724,-5242,-106,878,789
613,17167,2213,2689,-156,-1026,-3040,-154,211,1051
614,17358,2081,2688,28,6,-3868,143,-1237,-225
615,17358,2212,2690,126,2878,-4892,82,59,282
616,17561,2185,2689,-840,-1542,-3726,127,-122,-549
617,17561,2024,2690,-454,-2242,-2070,347,-770,435
618,17681,2095,2689,858,1304,-3638,-41,335,-803
619,17681,2278,2690,1076,3396,-2742,-606,136,-673
620,17681,1967,2689,-548,532,-2968,65,-122,-806
621,17585,2263,2691,2104,376,-7410,20,-199,-290
622,17585,1986,2689,-254,954,-4442,-128,520,-222
623,17382,2267,2689,-318,3286,-4762,182,389,-1068
624,17382,1984,2689,-1520,-114,-3820,417,363,-431
625,17167,2045,2690,764,-1160,-992,310,-190,-34
626,17167,2243,2690,168,-354,-606,234,-417,-1198
627,17131,2115,2688,-668,-1664,-2766,724,271,-1183
628,17167,2045,2692,800,1524,-5212,-245,757,-54
629,17167,2156,2689,286,-888,-1304,27,532,-487
630,17382,2213,2687,792,-588,-2448,246,27,-717
631,17382,2023,2690,596,-1052,-3084,424,-894,-661
632,18088,2080,2691,-344,-758,-2792,414,723,913
633,18781,2144,2689,-1018,274,-3158,198,-48,58
634,18781,2172,2689,4130,-2208,-3034,314,605,1022
635,19128,2038,2690,3186,-660,-4722,398,472,-1377
636,19128,1886,2691,966,-120,-3696,456,1205,-1640
637,19128,2178,2692,2310,-374,-658,717,125,-1876
638,19128,2242,2690,74,2054,-3310,191,-602,-1952
639,18972,2040,2689,1542,1224,-3350,508,-180,-2035
640,18542,2115,2689,984,-2428,-6216,656,243,-2055
641,18542,2121,2690,3102,-1592,-3726,395,189,-2438
642,17968,2155,2689,-576,-450,-1748,637,148,-2954
643,17968,2114,2689,1620,1228,-3612,317,243,-2185
644,17346,2095,2690,916,216,-5778,198,-351,-1280
645,17346,2134,2689,3556,-510,-4416,104,179,-2972
646,17119,2135,2687,-4422,1428,-5608,282,-415,-2462
647,17047,2024,2690,-2228,-12,-2190,559,954,-1139
648,17047,2365,2688,1908,-1864,-2870,-209,-360,-1861
649,17047,1990,2688,-418,-1488,-3066,-67,256,-169
650,17047,2218,2689,810,146,-4732,-300,-78,-417
651,17035,1808,2690,338,632,-4396,-206,-348,-1501
652,17035,2325,2690,444,800,-4612,-70,144,-1254
653,17035,1714,2690,-16,-106,-4324,59,570,-585
654,17107,2367,2689,158,1656,-3860,14,160,-1516
655,17107,1898,2688,1230,-1554,-5052,-258,-160,-829
656,17035,2282,2690,822,-960,-3140,-322,405,356
657,17035,1968,2689,-950,-208,-1464,-177,-227,-101
658,17047,2076,2688,764,-916,-7220,-103,363,-1077
659,17047,1942,2689,-388,-162,-2984,-45,430,-988
660,17023,2180,2688,124,-266,-2804,-442,506,-682
661,16964,2072,2689,768,-2472,-3988,-109,-443,-1148
662,16964,2128,2689,-892,-1102,-4462,-274,1167,-1492
663,16796,2128,2690,4,562,-4600,-480,866,-92
664,16796,2037,2688,574,1608,-4098,-3,116,423
665,16426,2191,2689,544,2096,-3792,-13,201,-464
666,15876,2041,2691,-216,2236,-1656,346,-9,-435
667,15876,2017,2689,1976,-2796,-3154,401,-155,-903
668,15230,2102,2689,1580,-1398,-5660,-351,-221,1178
669,15230,2147,2690,3374,106,-4070,-916,-1087,-443
670,14728,2042,2689,-3838,652,-3618,-96,-1288,229
671,14728,2205,2689,-4360,418,-3052,-345,513,1549
672,14214,2041,2688,2504,706,-3568,95,383,582
673,13903,2139,2688,-2548,-468,-4028,501,39,1033
674,13903,1958,2689,-1856,-1746,-2244,-590,809,1502
675,13783,2154,2689,-2222,-2160,-4684,-45,402,2145
676,13783,2020,2688,-1384,-1546,-2260,-15,-192,1873
677,13759,2168,2689,200,1346,-2280,-389,-611,2033
678,13759,2167,2690,390,-250,-3888,275,-722,2781
679,13520,2093,2689,-182,-3750,-1134,-99,14,4432
680,13317,2109,2690,-4320,-280,-872,-261,271,3756
681,13317,2180,2688,-2542,-242,-2830,876,-8,-655
682,13257,1885,2688,584,-490,-4722,-1074,-751,3768
683,13257,2438,2689,-1438,818,-4666,-103,135,3082
684,13149,1982,2690,-2386,1782,-2986,240,-684,2142
685,13149,2146,2689,-2120,1482,-4042,-48,-2,3406
686,13161,2080,2688,-1500,-820,-3196,259,-354,3353
687,13149,2220,2688,-2086,-1150,-3246,98,-24,2277
688,13149,2102,2688,-678,1190,-4168,181,144,2846
689,13149,2197,2690,-674,1162,-4078,172,-358,1959
690,13149,2084,2690,-724,-940,-5000,-125,-2,3094
691,13173,2204,2690,-1046,-1536,-4314,-96,-180,1809
692,13173,2194,2689,-1266,2474,-2308,-455,-1310,2009
693,13317,2168,2690,-628,-2260,-4484,265,249,2274
694,13711,2143,2690,554,-1238,-7168,218,-284,3223
695,13711,2205,2689,-1666,798,-3128,181,-358,2660
696,13962,2182,2688,510,1252,-6446,185,287,2156
697,13962,2282,2689,-164,-12,-1296,1,358,3132
698,14405,2194,2690,1108,-510,-2736,792,-59,341
699,15134,2181,2691,136,-2914,-794,417,494,1979
700,15134,2222,2690,1268,2438,-8238,243,113,1555
701,16210,2271,2690,1148,1056,-3306,278,396,1369
702,16210,2160,2691,3834,-1328,-6530,-371,342,1487
703,17000,2301,2690,1794,1818,-3246,-484,-97,432
704,17000,2191,2690,-668,-394,-926,181,-929,20
705,17035,2173,2689,2490,-456,-6114,43,786,500
706,17047,2234,2690,2012,-460,-140,349,-1171,-1351
707,17047,2252,2690,-70,-2078,-6170,81,39,-314
708,17047,2099,2689,274,26,-5440,-210,10,-22
709,17047,2224,2688,-24,1596,-5824,-545,427,-10
710,17035,2116,2690,228,948,-2800,-15,-484,559
711,17035,2168,2690,926,-2640,-958,304,-612,317
712,17035,2308,2691,-68,608,-1756,211,417,-63
713,16976,2266,2689,1046,-112,-5340,82,-367,-1065
714,16976,2054,2689,258,314,-5302,-406,567,-546
715,16868,2240,2689,600,-346,-3406,-151,358,347
716,16868,2053,2690,-256,-322,-2044,95,281,-290
717,16461,2255,2687,1062,658,-7334,-100,-25,-255
718,16461,2205,2689,-1642,506,-3498,100,-231,178
719,16091,2186,2690,794,-912,-4252,395,-160,-84
720,15947,2334,2689,410,1194,-4510,349,570,689
721,15947,2108,2690,-930,-512,-1698,259,224,-101
722,15840,2270,2689,-472,1456,-7504,475,300,-529
723,15840,2143,2689,-446,-478,-5342,-115,-205,135
724,15852,2262,2689,338,1840,-1976,259,-577,954
725,16031,2223,2690,-156,1384,-1196,1040,-309,-137
726,16031,2159,2689,-54,-124,-4036,256,-128,2106
727,16342,2133,2690,-980,-566,-5346,-15,160,724
728,16342,2372,2689,-1468,1214,-5118,-848,249,-104
729,16964,1906,2688,-268,1352,-5182,-616,671,957
730,16964,2251,2690,-1126,1890,-300,-371,-161,1060
731,16976,2100,2690,1090,878,-3750,334,145,529
732,17011,2172,2689,1946,-560,-1920,508,100,898
733,17011,2189,2691,-246,1584,-4724,169,-220,1022
734,16988,2168,2688,424,784,-4136,-199,-287,806
735,16988,2166,2689,-658,-596,-1278,-347,69,2537
736,17000,2244,2690,1198,-716,-4932,-218,75,376
737,17000,2214,2690,-30,590,-3576,-406,-798,712
738,17011,2245,2690,-1040,-2408,-2962,320,-382,249
739,16976,2197,2690,-822,-2414,-288,233,516,-178
740,16976,2137,2688,-842,1600,-3386,-3,240,297
741,16976,2222,2688,-860,858,-5692,-471,271,-953
742,16976,2064,2689,-948,302,-5410,-361,-142,916
743,16940,2479,2690,-604,-100,-5124,-89,183,668
744,16940,1783,2690,1238,-2114,-5664,1125,-297,-767
745,16844,2318,2689,-798,-1782,-1756,243,-246,1257
746,16641,1974,2689,614,-282,-466,398,294,-89
747,16641,2252,2690,-250,-244,-3274,-277,-14,432
748,16270,2253,2690,-652,-2214,-3790,-509,478,397
749,16270,2120,2690,-804,-200,-4008,101,-487,102
750,15947,2343,2691,1188,1148,-5320,346,24,308
751,15684,2143,2689,956,-950,-4376,130,-373,350
752,15684,2221,2689,-1022,-228,-4110,485,843,326
753,15445,2268,2689,1260,200,-4396,-147,-316,686
754,15445,2166,2689,-1176,1986,-7862,214,1408,350
755,15337,2227,2690,-1426,2010,-2944,-393,-227,1249
756,15337,2181,2688,-1476,-2056,-2236,-199,12,323
757,15230,2323,2689,-156,2226,-3682,-222,389,40
758,15134,2299,2689,992,468,-1802,433,-14,438
759,15134,2198,2689,-114,-8,-5774,798,-615,-1864
760,15134,2185,2689,-500,1680,-2030,-435,779,-667
761,15134,2256,2690,652,-1660,-6212,-532,-5,-278
762,15098,2192,2689,116,-662,-4434,-532,-535,889
763,15098,2201,2689,350,2704,-6436,-952,-335,185
764,15074,2194,2688,1598,-720,-4432,385,-361,81
765,15051,2216,2690,-370,680,-3130,640,367,311
766,15051,2113,2691,-1090,206,-3720,152,-411,-57
767,14931,2397,2689,1968,-1016,-8010,-603,735,694
768,14931,2191,2690,-476,954,-2752,-509,-843,-950
769,14799,2187,2689,-594,1516,-5580,-121,459,989
770,14799,2097,2689,-454,-472,-3252,805,-484,385
771,14752,2282,2692,-452,-1474,-2330,411,-265,821
772,14775,2082,2691,-188,504,-7102,56,-255,1290
773,14775,2218,2689,-2018,250,-3464,-116,411,190
774,14799,2378,2689,-2926,1286,-3844,-354,-319,-1236
775,14799,2088,2689,-828,2062,-1668,91,421,995
776,14919,2174,2690,2410,-1462,-7594,162,373,3559
777,14919,2282,2691,-1964,86,1392,-51,-973,1882
778,15051,2491,2691,1786,-1138,-4562,152,706,4072
779,15122,1849,2690,6,888,-2626,17,-97,1148
780,15122,2410,2689,-1354,1040,-3064,-174,-142,659
781,15134,1982,2690,-594,-2936,-2944,-147,825,1051
782,15134,2180,2689,164,-796,-4728,236,24,3321
783,15134,2322,2690,-1780,3068,-4652,-116,630,1508
784,15230,2081,2690,610,-386,-2978,81,-761,1319
785,15230,2230,2689,-1336,778,-5930,-163,-43,1299
786,15266,2095,2689,-1934,-56,-2616,-371,233,1125
787,15266,2127,2692,74,1632,-2274,259,408,341
788,15421,2235,2688,50,1020,-5284,347,450,1145
789,15421,2197,2689,-1290,-1336,-4520,-116,84,1756
790,15541,2230,2690,-794,1166,-7076,137,326,1658
791,15648,2187,2690,684,2760,-3852,-177,-443,2015
792,15648,2365,2690,-654,-1462,-1420,66,319,1747
793,15720,2459,2690,-388,-1968,-3716,424,560,2466
794,15720,1979,2691,-2962,3174,-3834,-151,-401,1641
795,15720,2261,2689,446,232,-8290,-832,884,1567
796,15720,2314,2687,-656,418,-4224,-832,-173,3188
797,15708,2279,2688,-572,-882,-9118,-267,-65,1543
798,15720,2350,2689,-840,-624,-2586,685,160,1770
799,15720,2260,2691,370,1176,-4088,789,103,1222
800,15708,2255,2689,-2996,46,-2662,-374,948,2047
801,15708,2333,2688,178,-598,-4266,-61,-300,1844
802,15744,2280,2689,-2690,3528,-6456,-394,169,1929
803,15744,2420,2690,406,-2158,-3882,-22,-342,1148
804,15756,2309,2690,-1370,-860,-2530,614,233,585
805,15768,2245,2689,752,-2740,-5294,291,484,76
806,15768,2283,2688,-3406,462,-4926,-225,557,898
807,15756,2338,2690,414,-108,-4538,-713,-319,1835
808,15756,2105,2688,-1370,-554,-6574,-455,246,895
809,15768,2360,2689,2010,228,-2910,46,84,721
810,15768,2529,2690,-1058,200,-2200,866,-210,509
811,15768,2220,2689,2114,376,-4774,-19,811,459
812,15756,2411,2688,-1264,344,-192,-1484,-272,5322
813,15756,2133,2689,564,-174,-4016,-187,-548,1116
814,15756,2249,2690,292,-178,-2918,-444,-919,518
815,15756,2343,2689,70,-460,-2668,175,-513,851
816,15768,2285,2690,396,-1564,-5626,621,68,-6120
817,15768,2356,2690,194,-992,-7178,-18,443,-414
818,15768,2288,2690,-610,-1084,-3902,-380,529,135
819,15756,2369,2689,820,-1182,-6172,-467,177,465
820,15756,2249,2689,-1212,2682,-6168,-35,-206,1616
821,15756,2404,2690,104,-1944,-4514,495,65,804
822,15756,2194,2690,-826,16,-5160,485,122,205
823,15768,2314,2690,-336,-1342,-3132,-67,103,96
824,15756,2180,2689,796,-352,-5616,-273,329,1016
825,15756,2559,2690,-754,1262,-1816,-61,436,-149
826,15768,2079,2689,424,324,-3892,666,-113,264
827,15768,2261,2689,-1694,2570,-5196,146,284,798
828,15768,2321,2689,-1066,-1006,-2506,-403,274,703
829,15768,2014,2688,-710,-1382,-1864,-248,392,1490
830,15732,2654,2687,-516,-578,-748,-193,-144,1010
831,15744,2195,2689,144,-1328,-3690,546,-852,1134
832,15744,2314,2689,718,-1176,-6080,101,122,715
833,15744,2225,2689,-6,-526,-66,204,-342,724
834,15744,2547,2687,-760,-792,-5842,-57,133,99
835,15744,2181,2689,-330,-1916,-1034,-251,-434,1835
836,15744,2318,2690,-264,1236,-4474,243,-421,1449
837,15744,2448,2688,-224,-2650,-806,359,-205,1063
838,15744,2372,2689,-812,1946,-4796,314,-455,780
839,15744,2288,2689,-460,-1932,-5562,-681,-274,780
840,15732,2399,2688,-856,-444,-428,-429,722,1425
841,15732,2373,2688,-2838,1642,-1792,-38,107,748
842,15708,2446,2688,1252,-1674,-2786,20,313,1131
843,15648,2357,2690,-2830,1946,-2478,443,421,904
844,15648,2321,2689,1246,-1124,-7952,181,671,1016
845,15493,2359,2690,-224,84,-1588,-342,-161,1339
846,15493,2553,2690,-1888,916,-2890,-154,21,1399
847,15349,2184,2691,-1402,-1144,-5198,62,-304,1016
848,15349,2387,2691,1024,536,-4872,204,-392,1673
849,15230,2433,2689,-1874,594,-2070,-141,440,1060
850,15122,2353,2689,246,-40,-2620,20,-583,1449
851,15122,2345,2690,-240,-1296,-4660,-319,-275,948
852,15062,2302,2689,-696,-1330,-6492,32,-406,909
853,15062,2346,2689,-2524,460,-3174,220,123,1075
854,15051,2346,2689,862,-1466,-5608,397,-799,1198
855,15051,2354,2690,-994,1150,-522,-374,703,992
856,14991,2466,2690,1194,550,-4260,-183,414,1051
857,15003,2137,2689,-2016,704,-1878,-251,214,668
858,15003,2301,2690,414,-806,-6188,30,-119,429
859,14991,2426,2691,-1088,-646,-3080,282,-145,1254
860,14991,2494,2689,-572,-796,-4296,214,367,1092
861,15051,2115,2688,-534,-1944,-408,-51,-519,804
862,15051,2334,2690,-2106,1868,-2676,-613,-72,1148
863,15134,2492,2691,180,1894,-7450,-41,113,241
864,15146,2214,2690,-1812,408,-4092,-326,-117,1110
865,15146,2443,2688,386,308,-7522,-145,1523,-644
866,15254,2329,2687,-616,2954,-1956,-216,-850,1455
867,15254,2348,2689,-1964,-1812,-3004,-86,-541,1193
868,15529,2430,2690,-974,928,-2786,-309,196,2142
869,15756,2193,2689,506,-656,-6766,21,-245,1982
870,15756,2247,2689,-2410,2338,-4038,318,65,2451
871,15935,2410,2690,236,-306,-4002,-15,-81,577
872,15935,2257,2689,1662,3234,-5372,-390,-49,385
873,16031,2477,2690,-1224,-2076,-664,-31,27,176
874,16031,2317,2689,316,2624,-2692,-322,542,1278
875,16115,2375,2690,-3430,832,-1278,-261,-1129,1337
876,16103,2244,2689,2222,-2372,-3136,340,151,161
877,16103,2349,2690,-1914,-632,-4200,-177,-720,1776
878,16067,2371,2688,586,-458,-4072,446,164,1078
879,16067,2383,2688,-232,-1094,-2952,481,42,119
880,16055,2056,2691,-1438,-1408,2418,0,-231,99
881,16055,2588,2690,-636,564,-4522,-319,662,2003
882,16055,1954,2688,-164,-1034,-5874,-439,817,1451
883,16055,2405,2689,-1222,-472,-5560,-103,-554,2643
884,16055,2139,2692,606,-1290,-7054,198,-75,1004
885,16103,2381,2690,-1542,534,-4156,265,116,913
886,16103,2278,2690,540,262,-5736,-157,15,1558
887,16186,2364,2688,216,924,-630,-406,-388,509
888,16186,2402,2689,-1830,-566,-4018,204,-656,718
889,16330,2481,2690,-74,-1714,-5016,291,-265,1045
890,16521,2231,2690,-778,4056,-2706,78,-218,1089
891,16521,2446,2690,56,-1642,-3190,176,431,500
892,16808,2179,2689,296,400,-7138,-86,-310,438
893,16808,2393,2691,-234,-1756,-4588,-132,-21,-717
894,16964,2275,2689,540,1974,-6168,68,-215,930
895,16964,2347,2688,240,1086,-4836,-329,661,340
896,16964,2406,2692,-1348,-142,-2242,74,-752,-217
897,17000,2213,2689,-92,796,-4136,-193,281,-81
898,17000,2464,2689,-1200,976,-950,-93,-1033,1231
899,17000,2311,2689,228,-530,-4092,234,-30,-281
900,17000,2446,2689,1510,206,-6286,-112,-154,1290
901,17023,2286,2690,-438,2010,-3302,143,278,406
902,17035,2354,2690,-992,-734,-4332,-258,281,-225
903,17035,2450,2689,-410,1040,-3992,-448,176,137
904,17035,2336,2689,1180,-296,-6786,-380,-53,-328
905,17035,2234,2691,-1486,1192,-2326,-135,-205,31
906,17047,2333,2689,474,1288,-4204,-280,284,1806
907,17047,2475,2690,512,-718,-1576,10,182,-2144
908,17047,2250,2690,-1144,346,-3204,-254,-122,494
909,17047,2377,2689,942,-2088,-4422,23,487,1396
910,17047,2461,2689,856,1334,-3430,727,-526,1042
911,17035,2310,2690,-500,472,-8036,463,281,285
912,17035,2458,2690,1366,-466,-5992,17,-1463,185
913,16976,2283,2690,-1502,178,-5066,-403,563,247
914,16976,2325,2690,-174,-522,-1702,-264,-208,532
915,16904,2315,2688,-820,-432,-860,-293,-598,43
916,16677,2409,2689,308,-1720,-3246,114,698,-316
917,16677,2452,2690,-134,1902,-5650,143,71,191
918,16151,2195,2690,-782,288,-5534,-378,64,697
919,16151,2464,2689,-74,1714,-3492,265,75,812
920,15720,2210,2690,-198,-1454,-6416,256,-310,382
921,15720,2417,2692,1588,-70,-6552,263,1085,-732
922,15230,2322,2690,-62,-1122,-5390,595,-624,8
923,14775,2276,2688,-588,1338,-6574,-813,-170,423
924,14775,2387,2690,-1416,-176,1548,-387,611,665
925,14166,2327,2688,-1220,-1938,-2986,-183,-443,1558
926,14166,2178,2689,-2734,790,-2844,533,1078,28
927,13855,2247,2689,-1348,-1594,-750,776,-744,1452
928,13652,2667,2689,-3014,282,-7782,795,278,2475
929,13652,2038,2687,-500,-692,-5024,356,815,2307
930,13245,2333,2687,-1544,2360,-1366,-125,542,2554
931,13245,2439,2689,-3144,372,-7750,17,1202,2478
932,13090,2358,2691,1524,418,-5986,834,-922,1850
933,13090,2403,2691,-3916,1316,-4338,191,-726,2357
934,13066,2359,2690,-534,-1514,-6966,294,-116,2970
935,13090,2572,2687,-2202,1326,-4680,178,344,2710
936,13090,2094,2688,-1034,-1652,-4972,-180,532,3353
937,13090,2404,2690,-1910,-1530,-7168,301,465,3568
938,13090,2364,2689,-1656,-302,-2464,631,751,3385
939,13173,2349,2689,-1046,-1964,-3436,208,-315,3223
940,13173,2292,2690,-1932,-1398,-3810,82,136,2610
941,13317,2339,2690,130,128,-5876,-63,-369,3032
942,13556,2554,2690,-2134,212,-104,-41,-608,3786
943,13556,1970,2690,-624,-86,-4514,78,643,2321
944,13711,2380,2689,-3354,1684,-3306,-41,-97,3421
945,13711,2367,2690,-1204,1462,-7614,-267,1034,4081
946,13771,2354,2687,-186,-1966,-990,-19,-263,3146
947,13771,2391,2690,-1926,-1968,-3922,4,5,2893
948,13879,2426,2690,-856,450,-5134,-128,-360,3598
949,14082,2554,2691,-1622,1842,-5746,375,119,3114
950,14082,2154,2690,-2116,-1590,-2422,-35,544,3200
951,14536,2245,2689,-2068,-1028,-4050,-480,415,3055
952,14536,2195,2689,-804,-660,-7184,-432,-510,4166
953,15110,2433,2690,-1912,-58,-4588,-32,1300,3488
954,15840,2309,2689,2484,-1876,-4428,-34,-135,2828
955,15840,2390,2690,-2340,826,-496,-161,-297,3002
956,16473,2258,2690,2232,-1154,-4716,-283,271,1906
957,16473,2316,2689,-1972,1148,-4236,-219,-723,1219
958,16976,2346,2689,1102,-1644,-3020,-345,1592,1888
959,16976,2236,2691,2690,-704,-2024,-841,-144,2195
960,16964,2319,2690,824,-406,-4466,-190,424,17
961,17023,2164,2690,1610,1074,-3060,-264,-411,1705
962,17023,2321,2691,200,-1826,-2862,114,141,25
963,17011,2327,2690,-1026,-1080,-8242,-96,-1062,-1374
964,17011,2370,2689,1444,324,-7190,-309,338,2248
965,17011,2428,2689,-1224,652,408,204,-116,1582
966,17011,2399,2689,-856,1350,-3676,-309,-8,214
967,17000,2240,2690,-1386,1822,-3300,-839,-81,1935
968,16976,2252,2690,1404,-850,-3982,-464,805,1982
969,16976,2307,2688,190,-614,-3570,43,411,703
970,16964,2340,2689,646,-1830,-3834,340,-599,-201
971,16964,2393,2690,-818,430,-4234,291,-100,364
972,16892,2269,2688,74,2068,-4734,-625,37,382
973,16892,2423,2688,986,720,-3616,66,-421,-60
974,16808,2060,2690,90,180,-4474,188,155,252
975,16557,2551,2689,-1818,-82,-4764,-367,-93,1210
976,16557,2072,2688,432,-938,-4458,317,509,904
977,16031,2323,2689,1636,-1132,-4914,-25,-1138,-461
978,16031,2372,2689,-674,570,-2458,-302,94,388
979,15421,2577,2691,2594,32,-6334,1,-65,-2017
980,15421,2226,2690,-3826,3332,-4750,104,520,529
981,14931,2307,2690,-1128,-1560,-3752,114,313,1364
982,14453,2363,2688,-1230,378,-3218,-106,-344,818
983,14453,2296,2688,-1588,14,-674,-109,554,1402
984,14202,2386,2688,644,-1220,-2684,94,80,2171
985,14202,2364,2689,-2550,-224,-4366,207,306,1991
986,14106,2502,2688,708,-770,-5848,-241,-640,2478
987,14130,2208,2691,-2898,232,-2962,198,557,1157
988,14130,2235,2689,92,-1966,-4476,553,-284,2569
989,14178,2290,2689,-1822,-66,-2588,-316,-34,2946
990,14178,2289,2689,-964,-1050,-2310,282,-151,1608
991,14285,2458,2689,-156,2548,-4540,52,1014,1446
992,14285,2395,2688,-1008,-1104,-4898,175,-326,1932
993,14297,2479,2690,-1408,-720,-1732,-219,-255,1160
994,14166,2266,2690,-2058,478,-3668,-32,284,2327
995,14166,2276,2688,-1312,-3222,-816,358,-16,2412
996,14106,2396,2689,-2646,2658,-2502,101,-504,2094
997,14106,2387,2688,866,-1510,-6170,236,373,2015
998,14094,2328,2690,-2710,500,-416,-555,-379,6999
999,14094,2241,2689,-1680,-1030,-4140,-477,611,2843
1000,14082,2596,2688,-94,-470,-2880,-148,-91,621
1001,14094,2198,2690,-1656,1910,-4444,-74,351,2710
1002,14094,2287,2691,-1360,-1150,-3346,59,231,3421
1003,14106,2429,2692,-406,374,-4764,-9,285,2722
1004,14106,2193,2689,-964,136,-5006,159,309,2831
1005,14118,2331,2689,-1808,-782,-2822,-387,20,2525
1006,14118,2306,2689,-292,-1400,-4328,-128,-215,2398
1007,14225,2452,2690,-920,2304,-2522,175,-183,1685
1008,14405,2345,2689,876,306,-6668,79,46,1337
1009,14405,2162,2690,-2296,20,-3716,-342,265,2666
1010,14548,2436,2690,2330,-522,-6512,-467,253,90
1011,14548,2290,2689,-748,-1898,-2944,39,192,2389
1012,14823,2388,2688,-686,-72,-2908,-41,-27,2118
1013,15051,2357,2691,-466,-102,-3668,353,-84,1944
1014,15051,2475,2690,-770,1948,-7356,-180,519,1201
1015,15720,2236,2689,58,-710,-4806,127,-831,1865
1016,15720,2293,2689,-392,1060,-2968,-35,691,939
1017,16282,2431,2689,638,-1288,-4248,32,36,785
1018,16282,2224,2691,-1458,466,-1374,214,-116,1390
1019,16976,2368,2690,2524,-2064,-3296,-21,392,-160
1020,16976,2177,2690,-1178,380,-4956,39,46,1302
1021,16976,2581,2688,-138,-432,-7002,159,799,2481
1022,17035,2071,2688,-1288,1848,-2320,-277,1049,2566
1023,17035,2463,2690,950,2848,-6260,104,-634,-33
1024,17035,2226,2690,-680,-1558,-5146,-116,472,733
1025,17035,2277,2690,2512,-678,-4002,395,74,423
1026,17047,2624,2687,-2,-2028,-1922,-357,-131,-428
1027,17035,2061,2690,-116,-482,-3782,-358,-411,-396
1028,17035,2535,2689,646,-2288,-6910,443,-186,93
1029,17000,2030,2690,-432,434,-3428,49,167,-959
1030,17000,2373,2689,882,-1790,-4950,-274,-196,-234
1031,17000,2193,2690,-468,-182,-3692,39,-62,-137
1032,17000,2301,2689,1066,-2112,-2262,-61,513,-670
1033,17000,2352,2689,-166,2034,-5842,-383,-88,391
1034,16988,2389,2690,618,314,-5468,136,471,23
1035,16988,2423,2691,-1916,636,-732,39,342,241
1036,17000,2486,2689,672,-2052,-6902,-254,310,-526
1037,17000,2206,2688,1212,696,-5290,-410,4,181
1038,16988,2412,2690,894,-2614,-3108,46,-272,-125
1039,16988,2206,2690,-1072,-62,-2032,272,106,-311
1040,17000,2305,2689,998,-2348,-5712,-338,-160,-169
1041,16976,2338,2688,2044,1362,-4454,-86,167,-10
1042,16976,2302,2689,-1554,2782,-6004,-675,68,-96
1043,16976,2484,2689,2426,594,-8732,56,-180,-455
1044,16976,2326,2689,-1058,400,-596,188,640,748
1045,16976,2353,2689,276,-2600,-750,-60,370,-573
1046,16976,2287,2689,134,2358,-5272,-496,113,359
1047,16976,2360,2689,-496,-1512,-2240,-187,436,1343
1048,16976,2273,2690,-662,3124,-910,-241,503,87
1049,16976,2635,2689,-368,-684,-5654,88,-535,-714
1050,16904,1974,2689,-974,1876,-3766,143,-214,-1092
1051,16904,2388,2689,1722,-1506,-5040,221,418,485
1052,16880,2387,2689,-1816,1426,-384,62,-247,-939
1053,16856,2157,2692,544,-146,-3288,-187,-240,-726
1054,16856,2460,2690,-288,-530,-5668,-377,100,-249
1055,16796,2305,2690,-858,342,-4648,-254,-319,765
1056,16796,2335,2687,-1242,966,-5174,-696,-179,612
1057,16748,2510,2689,-512,-856,-1480,107,49,414
1058,16748,2242,2690,-3106,-1968,-4078,395,-735,-151
1059,16414,2409,2689,18,3634,-3262,-945,414,-980
1060,15947,2283,2688,-410,-40,-2676,479,284,-92
1061,15947,2359,2690,-268,-680,-4642,-229,-1263,-1507
1062,15565,2342,2689,360,776,-5410,-144,-665,241
1063,15565,2319,2690,90,1714,-3302,385,-618,344
1064,15194,2307,2691,-522,-460,-3698,7,-27,108
1065,15194,2335,2689,-1296,1792,-5018,-526,-189,739
1066,15062,2403,2689,-2702,1864,-1984,101,119,954
1067,15062,2297,2689,-962,-1362,-6022,475,284,889
1068,15062,2265,2691,-824,1176,-3656,-248,332,3067
1069,15062,2116,2689,618,-2146,-4376,539,160,1316
1070,15062,2256,2690,230,-986,-2610,508,538,391
1071,15062,2406,2690,280,2978,-2770,382,-980,1081
1072,15062,2301,2690,-1082,-322,-5318,143,125,1953
1073,15062,2342,2689,4,-136,-3308,601,71,792
1074,15062,2104,2691,-2862,-1306,-478,679,-84,2251
1075,15062,2453,2689,-1684,-504,-4418,449,259,1198
1076,15062,2474,2689,-262,-892,-4482,621,-735,-33
1077,15062,2098,2690,1312,-876,-7510,-538,-468,883
1078,15110,2443,2689,-1398,2096,-1054,459,17,1001
1079,15146,2268,2690,-1460,-402,-4806,540,509,25
1080,15146,2424,2690,-1010,1002,-1148,-487,294,986
1081,15074,2394,2689,-608,-286,-5398,976,579,518
1082,15074,2441,2688,-440,-2232,-3622,-312,199,1275
1083,14931,2310,2690,-1428,3174,-2644,20,-237,957
1084,14931,2408,2689,1572,-1916,-6196,65,-1129,2581
1085,14764,2260,2690,-700,-1388,-64,-77,-1228,1476
1086,14704,2411,2689,-626,144,-6512,-568,233,989
1087,14704,2118,2689,-1000,934,-2978,-86,-297,1502
1088,14692,2464,2688,-1080,308,-5178,-132,828,1517
1089,14692,2306,2688,-512,778,-3038,220,-452,1585
1090,14728,2383,2691,-402,-662,-2322,-80,-169,1888
1091,14728,2456,2689,-1412,-332,-912,72,-307,2304
1092,15062,2141,2691,-216,1066,-6048,-322,173,1496
1093,15218,2369,2690,-952,-2584,-6016,253,202,20
1094,15218,2447,2689,-1022,2040,-3078,-396,351,889
1095,15756,2317,2690,78,-488,-4818,-12,-332,1823
1096,15756,2296,2690,-1238,2064,-2456,333,684,860
1097,16186,2215,2690,430,-1248,-3136,-290,75,842
1098,16569,2254,2690,-14,-1004,-1430,-121,-243,414
1099,16569,2534,2690,-1984,314,-4378,-329,754,2100
1100,16916,2285,2689,-486,-1826,-3522,75,-417,385
1101,16916,2469,2690,924,-392,-1296,130,349,367
1102,16976,2302,2691,-316,2116,-4854,-257,-26,556
1103,16976,2499,2690,636,636,-4972,-125,142,768
1104,16976,2153,2689,1902,-2894,-4156,-105,-443,49
1105,16964,2280,2691,314,2190,-3224,-83,-325,-75
1106,16964,2424,2691,142,894,-5756,52,478,544
1107,16820,2348,2691,754,1338,-816,-9,-227,995
1108,16820,2317,2689,-460,-138,-2300,-577,259,1443
1109,16533,2325,2688,878,-816,-3066,62,-329,538
1110,16533,2325,2689,-258,482,-7978,-415,1180,1116
1111,15864,2213,2689,-858,1742,-2612,-55,-666,246
1112,15182,2272,2689,-2170,-82,-2908,63,-20,347
1113,15182,2500,2690,2426,-76,-5326,-74,-878,-249
1114,14752,2273,2691,-2756,-1030,-2684,-148,-329,359
1115,14752,2169,2689,-432,2976,-1836,298,459,2100
1116,14345,2344,2687,-648,-228,-4754,-751,-595,423
1117,14345,2394,2686,-2206,1284,-4696,-619,-103,2156
1118,14297,2389,2689,-608,-706,-3316,330,-30,2401
1119,14417,2285,2687,1444,3126,-9546,-677,-348,1225
1120,14417,2243,2688,-6034,2552,2064,-9,322,1278
1121,14991,2531,2689,782,-916,-6292,-612,406,10515
1122,14991,2231,2688,-1638,944,-2500,-409,633,2896
1123,15337,2131,2688,-746,-1258,-3682,-9,84,1263
1124,15337,2489,2688,350,-970,-3064,-823,-335,2351
1125,16031,2563,2692,-2084,-584,-2478,633,-386,2271
1126,16736,2127,2692,496,-1140,-7320,262,253,2295
1127,16736,2287,2690,854,-82,-2510,-228,5,836
1128,17000,2536,2688,-4,-1364,-4804,-222,259,1134
1129,17000,1911,2690,330,-1212,-9364,-1055,78,972
1130,16976,2391,2691,48,24,-3716,85,-252,762
1131,16976,2547,2689,-884,-94,-2340,20,-460,2176
1132,16976,2190,2689,1686,-1342,-4350,372,84,279
1133,16796,2466,2689,-906,-84,-3520,-312,106,152
1134,16796,2264,2689,624,538,-3940,-767,875,229
1135,16222,2599,2689,960,48,-5082,-180,-634,-540
1136,16222,1886,2689,-824,-1206,-4448,701,-335,-3950
1137,15624,2407,2691,-1662,368,-3326,-99,450,1334
1138,15039,2522,2689,-256,-1990,-548,1,-414,638
1139,15039,2256,2688,2574,-2264,-8042,-435,189,494
1140,14572,2402,2689,-630,-1104,-4960,-570,-725,580
1141,14572,2247,2691,-2340,-258,-918,-50,-424,1408
1142,14309,2510,2688,-4116,-96,-5536,-522,913,-48
1143,14309,2231,2685,38,-2084,-2542,-63,-1046,2118
1144,14202,2224,2688,-2508,898,-3814,-425,1101,1968
1145,14297,2435,2690,1186,-2684,-432,-112,818,1997
1146,14297,2357,2691,-346,3024,-4092,575,-744,1246
1147,14453,2342,2689,-1486,-1662,-1946,185,443,-92
1148,14453,2247,2688,-192,2382,-5140,-77,-329,1532
1149,14919,2388,2687,428,-1648,-6044,36,-485,1476
1150,14919,2329,2688,-2326,1982,-1438,-355,45,1737
1151,15230,2278,2691,-56,292,-5872,-58,93,2392
1152,15852,2361,2689,-198,1112,-4424,-15,20,718
1153,15852,2274,2689,296,-2318,-4948,-151,1224,1467
1154,16151,2304,2688,226,718,-1870,126,-345,865
1155,16151,2416,2690,1316,12,-9592,-177,-132,1204
1156,15876,2461,2691,320,1106,-2328,114,-199,1175
1157,15230,2029,2691,62,-190,-1334,343,-554,692
1158,15230,2417,2690,-246,1458,-5182,146,-586,-275
1159,14716,2374,2690,-2344,-1244,-4020,117,-110,81
1160,14716,2265,2689,-90,1568,-4878,-61,-56,1481
1161,14178,2274,2688,-3558,-106,-8680,249,-196,1455
1162,14178,2310,2689,-1668,-1400,-2680,256,-608,1965
1163,13891,2563,2690,-4498,948,-6098,-276,888,1611
1164,13544,2201,2688,-388,-1772,-1930,375,-398,2268
1165,13544,2298,2688,-4090,4420,-4582,-842,-69,2254
1166,13078,2386,2689,-1264,-1824,-1148,56,367,2374
1167,13078,2318,2688,-2150,1744,-3574,475,-713,2640
1168,12611,2291,2690,-3866,-1158,-3598,-70,-4,2905
1169,12611,2369,2689,-4140,-232,-3500,663,-593,2289
1170,12037,2324,2688,-1090,2534,-4576,-342,-1050,4438
1171,11726,2212,2687,-1626,-2352,-2258,-161,-630,3338
1172,11726,2346,2690,-4150,3958,-3284,-283,751,5702
1173,11667,2621,2690,-2900,-1098,-1246,356,-97,6283
1174,11667,2076,2688,-4860,406,-3884,-9,281,4644
1175,11667,2293,2690,-2352,-882,-5384,211,-417,4255
1176,11667,2342,2689,-2328,624,-3154,149,-246,4243
1177,11750,2279,2689,-1176,2254,-4594,517,-567,3916
1178,12025,2460,2690,-2890,-2824,-4330,498,614,4013
1179,12025,2397,2689,-3258,-762,-2756,-106,39,5737
1180,12276,2255,2689,-2276,-3170,-4696,-1007,-62,5938
1181,12276,2302,2689,-524,1398,-2258,-187,-1075,7556
1182,12587,2479,2690,-1860,-1756,-7614,314,-608,1894
1183,12587,2108,2692,-5474,-1194,-3224,243,-259,5042
1184,12695,2565,2689,162,-84,-6836,404,630,5932
1185,12671,2088,2686,-2186,-1332,-2740,-248,684,4284
1186,12671,2290,2689,496,-362,-3392,-234,964,5708
1187,12599,2448,2691,-4092,1134,-1468,233,198,4827
1188,12599,2260,2691,-36,-1472,-5428,504,-1400,3653
1189,12587,2356,2692,-1462,1046,-7112,-242,-583,5631
1190,12587,2311,2691,-1104,-2330,-5340,788,-1244,4296
1191,12587,2368,2688,-2016,-182,-5396,191,541,4979
1192,12695,2295,2689,-2458,-1468,-1696,-280,837,4868
1193,12695,2386,2689,-1336,382,-412,107,227,4659
1194,12803,2354,2689,-1354,78,-2878,297,153,2840
1195,12803,2289,2693,-1000,-582,-2664,324,119,3854
1196,13173,2274,2690,-2612,-168,-7576,-151,90,4446
1197,13879,2362,2688,1866,-2044,-5296,266,713,3819
1198,13879,2400,2691,-1984,-1336,-2414,175,160,4358
1199,14811,2292,2691,-208,-1120,-5140,301,605,3397
1200,14811,2363,2689,822,3886,-5878,-542,1237,3217
1201,15864,2379,2691,106,-904,-4320,36,1354,2153
1202,15864,2249,2690,2606,870,-4128,-163,558,1493
1203,16701,2311,2690,420,-554,-5286,282,11,998
1204,16964,2446,2691,1256,-1436,-4270,194,719,683
1205,16964,2372,2689,1052,420,-1774,-328,-532,320
1206,17000,2246,2691,-732,-1198,-1770,210,-253,379
1207,17000,2358,2689,980,1754,-6258,-245,154,61
1208,17047,2210,2688,-300,-1048,-1678,586,-1116,-343
1209,17047,2396,2689,-1476,1094,-4900,298,520,889
1210,17047,2308,2690,2602,-1052,-4558,-832,-348,6339
1211,17011,2338,2690,256,-1282,-2686,246,-583,907
1212,17011,2398,2688,346,-216,-6062,-8,1397,-593
1213,17035,2318,2689,-28,-412,-926,-22,-929,14
1214,17035,2285,2690,598,1858,-4262,240,-227,-638
1215,17047,2207,2690,-1390,2142,-5188,75,811,-66
1216,17047,2386,2688,-118,-1428,-6164,-154,-434,1131
1217,17023,2361,2689,-110,40,-1184,-351,-211,1490
1218,17000,2330,2688,620,724,-6138,-212,627,-629
1219,17000,2150,2689,668,1968,-2204,-500,103,1219
1220,17000,2332,2691,132,52,-2306,466,-205,-847
1221,17000,2514,2689,-2572,2184,-6530,-174,141,871
1222,16964,2014,2689,-804,-1800,-2716,-25,-173,697
1223,16964,2333,2689,-1894,2544,-2434,-34,-233,117
1224,16964,2385,2690,466,-1274,-1730,-325,84,367
1225,16964,2234,2690,-618,312,-3680,62,402,904
1226,16964,2434,2690,1112,-2076,-5806,-70,497,305
1227,16976,2324,2689,-108,-592,-3936,366,-490,795
1228,16976,2524,2690,830,2030,-5194,-393,-328,270
1229,16964,2224,2690,1272,-2336,-2644,-161,-484,680
1230,16976,2307,2689,-2318,1960,-4188,17,-179,258
1231,16976,2378,2689,2530,-1474,-3178,365,341,-338
1232,16976,2337,2689,-484,1416,-6232,540,506,25
1233,16976,2367,2688,1524,-1154,-4282,-442,1110,367
1234,16964,2393,2689,598,-354,-3656,-154,-370,1137
1235,16964,2360,2689,282,-2132,-2928,334,62,488
1236,16964,2285,2690,1454,-2196,-3568,91,-932,-532
1237,16976,2376,2690,-1776,-250,-6020,-251,519,188
1238,16976,2452,2688,220,248,-5684,-203,249,-325
1239,16916,2317,2687,-158,982,-1788,-125,-243,-779
1240,16916,2288,2689,2222,-464,-6986,404,1005,1113
1241,16748,2288,2690,416,1332,-1464,327,-135,132
1242,16497,2325,2692,1194,580,-4544,123,177,170
1243,16497,2255,2690,-152,1650,-3570,-15,358,-75
1244,16031,2316,2689,584,-1266,-1886,-9,-641,-1416
1245,16031,2305,2690,-954,814,-2188,-244,-68,488
1246,15696,2323,2691,-498,1192,-6438,-32,840,-1501
1247,15696,2497,2690,916,296,-2074,318,62,-856
1248,15218,2238,2690,-3700,1066,-4354,185,659,792
1249,15062,2637,2689,1002,-526,-3964,-170,-291,1764
1250,15062,2186,2687,-2134,1460,-2648,-558,-78,1134
1251,14931,2245,2688,2584,-1048,-1428,-293,509,777
1252,14931,2225,2690,-2348,2484,-4860,533,-970,-608
1253,14775,2381,2689,836,-1376,-5076,188,513,426
1254,14775,2356,2690,-1456,78,-5136,-167,608,1747
1255,14572,2446,2688,-638,-2204,-3742,-76,313,1249
1256,14465,2499,2687,644,436,-6918,-429,-427,1375
1257,14465,2207,2691,-3210,348,-574,-67,-198,1145
1258,14429,2318,2690,382,-1712,-4850,123,-1301,1812
1259,14429,2408,2690,-2072,390,-130,-103,1831,1316
1260,14405,2377,2689,1222,-1526,-4598,476,-290,2495
1261,14405,2352,2691,-2010,878,-1254,-548,182,2083
1262,14417,2240,2691,-1046,-936,-4064,94,725,1644
1263,14297,2412,2689,-1666,-58,-3850,194,-789,762
1264,14297,2199,2689,-2822,1338,-3840,-129,7,924
1265,14118,2374,2690,-1560,-466,-3570,165,236,995
1266,14118,2102,2689,-1038,280,-3618,7,-481,2931
1267,14010,2349,2690,-1190,-1214,-3006,-312,297,3032
1268,14010,1997,2691,-878,1422,-6974,-613,-291,1461
1269,13950,2552,2689,-1900,404,-5482,169,-955,1310
1270,13950,2109,2690,-380,-2952,-7146,453,411,730
1271,13950,2295,2691,-1540,1218,-3194,-32,-59,948
1272,13950,2543,2690,944,-2190,-7418,-187,805,1355
1273,13950,2253,2689,294,-1458,56,-32,-455,3247
1274,14070,2301,2691,-374,-334,-4092,-264,278,2740
1275,14309,2445,2690,-814,-1818,-2966,-54,-161,2251
1276,14309,2261,2690,4,-1702,-4310,288,-970,1882
1277,14811,2290,2689,-1248,-32,-5680,569,-233,2363
1278,14811,2275,2691,-916,-116,-2466,-135,-173,2156
1279,15230,2493,2689,-140,1434,-1430,-216,-923,4148
1280,15230,2203,2688,-614,132,-5784,30,-497,1623
1281,15624,2266,2690,492,-364,-7182,495,173,2024
1282,15756,2355,2690,-164,-614,-4688,-267,1091,1210
1283,15756,2327,2691,1070,-1982,-2310,-183,81,1069
1284,15852,2295,2690,-1118,-130,-4600,46,-354,-414
1285,15852,2340,2690,690,-600,-6128,340,255,1142
1286,16174,2534,2691,-2078,4470,-6576,-57,-237,904
1287,16174,2193,2688,-2858,-1586,-2198,333,306,736
1288,16497,2326,2691,598,-512,-2916,-103,-21,1004
1289,16940,2422,2690,-2332,2172,-4080,-1501,-113,3500
1290,16940,2349,2691,-2752,-1452,-2864,-131,-264,730
1291,16976,2429,2689,1856,1666,-3362,-276,745,1443
1292,16976,2399,2690,2302,-1226,-4686,369,-951,1057
1293,16964,2313,2692,236,-978,-2284,-67,93,61
1294,16964,2492,2690,-1558,-1032,-4454,-203,186,-308
1295,16988,2291,2690,-816,-2112,-2084,-51,-113,279
1296,17000,2337,2690,-16,110,-3594,462,480,43
1297,17000,2236,2690,1292,-2340,-1010,143,500,-829
1298,17000,2353,2692,-1246,-18,-1224,427,-125,-305
1299,17000,2323,2690,-98,-1330,-4622,-74,224,-322
1300,16988,2297,2690,1510,2056,-7782,-406,84,-175
1301,16988,2451,2689,1122,114,-4936,27,-636,-1498
1302,16988,2284,2689,-1244,716,-4706,275,846,-588
1303,16988,2189,2690,868,-2160,-1048,469,-323,-104
1304,16988,2410,2690,-1910,-1642,390,469,681,-36
1305,17000,2584,2689,642,-344,-5082,8,485,-1416
1306,17000,1979,2689,-734,1544,-2916,-448,-653,-759
1307,17000,2383,2689,-160,476,-5348,-790,-1065,2159
1308,17000,2538,2689,1370,-272,-5830,152,513,429
1309,17000,2274,2689,-196,-64,-4724,262,-119,432
1310,17000,2211,2690,-776,-1626,-4654,618,485,-1657
1311,17000,2472,2690,-486,440,-1756,-190,894,-647
1312,17000,2519,2689,646,1092,-4658,-164,-272,-446
1313,17000,1932,2690,-114,2216,-6448,-817,-555,3114
1314,17000,2430,2689,-396,-1260,-4400,243,-5,-128
1315,16988,2530,2690,-944,-430,-1846,311,-87,264
1316,16988,1931,2690,2358,72,-7232,520,116,193
1317,16964,2646,2689,-166,566,-446,-538,-163,538
1318,16964,2181,2690,-602,-2942,-2002,301,786,-172
1319,16964,2332,2690,658,-2024,1064,340,-789,46
1320,16964,2203,2689,-286,1840,-7130,-19,-319,-720
1321,16964,2410,2692,1022,-802,-6858,188,103,733
1322,16964,2165,2691,-546,-1814,-6624,-342,-427,1534
1323,16964,2395,2690,396,-1946,-1448,-367,-335,-1304
1324,16748,2379,2690,-1818,-76,-3526,-103,627,126
1325,16748,2266,2689,1114,-1010,-3924,330,471,-119
1326,16390,2310,2689,-4,-1642,-6746,30,1205,509
1327,16390,2434,2690,1968,512,-1332,101,144,-57
1328,16043,2507,2688,-1584,3512,-876,-919,-182,974
1329,15756,2163,2690,908,-1936,-3114,-57,-738,70
1330,15756,2310,2689,-1044,492,-1448,566,-707,123
1331,15337,2371,2690,-194,-370,-3102,24,148,721
1332,15337,2307,2689,-2594,2210,-2796,117,-259,1308
1333,15039,2341,2690,-2128,-1324,-2950,-1023,677,3473
1334,14835,2253,2689,-156,1848,-1656,-235,1,1440
1335,14835,2619,2688,-1700,-1480,-4850,488,-65,208
1336,14680,2186,2690,-692,1606,-3098,282,-56,1089
1337,14680,2207,2690,-1304,1518,-5696,-148,192,1110
1338,14536,2436,2690,428,-998,-6442,-419,27,2427
1339,14536,2245,2690,-3136,-316,-1196,369,135,1296
1340,14453,2420,2689,1760,-114,-7434,-196,440,804
1341,14321,2379,2691,-2440,-102,-198,14,618,910
1342,14321,2280,2691,408,-1326,-3766,-232,-700,1178
1343,14142,2369,2688,-1310,2678,-3144,-296,351,1664
1344,14142,2326,2689,-602,906,-5334,-193,-97,916
1345,14070,2413,2690,156,-1122,-2012,223,24,1393
1346,14070,2212,2691,-1470,-1430,-3714,256,465,1720
1347,13962,2356,2689,-4,-1212,-3412,-77,49,2501
1348,13939,2128,2690,-480,-2394,-6658,327,310,1747
1349,13939,2373,2690,-1818,1256,-1408,-173,314,2330
1350,13783,2289,2690,100,-1646,-3230,-309,503,1959
1351,13783,2290,2690,-1666,1658,-2040,275,402,2150
1352,13556,2389,2690,1086,-864,-5854,556,313,1322
1353,13556,2378,2691,-894,-1916,-3246,685,5,2454
1354,13293,2348,2689,-428,-140,-6044,-267,186,2525
1355,13149,2348,2689,-978,-1340,-5990,181,-72,742
1356,13149,2309,2688,-2386,138,-5584,-406,544,2433
1357,13078,2288,2689,632,-1548,-4052,291,24,2908
1358,13078,2354,2689,-1414,204,-3702,-84,788,4788
1359,13090,2304,2689,658,-1216,-5212,-574,-564,3088
1360,13161,2341,2690,-1744,1324,708,-364,-1320,2946
1361,13161,2446,2688,-230,-3520,-5528,85,-850,4535
1362,13281,2153,2691,-1814,-338,-4180,-128,-793,2713
1363,13281,2534,2689,-1378,1274,-8074,-34,40,4924
1364,13640,2369,2688,-1204,-1934,-6074,-729,792,3707
1365,13640,2110,2689,-598,428,-4984,111,383,2793
1366,13891,2487,2690,-786,-348,-7010,-590,341,4096
1367,14022,2272,2690,-906,1898,-3080,204,-109,3353
1368,14022,2337,2690,-2238,348,-3058,-425,161,3715
1369,14118,2195,2688,-2106,1278,-2374,-687,957,3300
1370,14118,2392,2689,1018,-282,-3932,101,-46,2463
1371,14405,2297,2689,-2834,1232,-2716,269,332,2746
1372,14405,2295,2691,1612,-1388,-4916,369,49,3321
1373,14680,2355,2690,-2988,-904,-2204,333,-1177,2743
1374,15122,2300,2690,-1394,-246,-6712,-396,1062,4278
1375,15122,2355,2687,-1610,42,-1288,-745,-148,1331
1376,15720,2312,2688,-1766,28,-4640,-255,328,2745
1377,15720,2577,2689,-418,282,-4276,29,963,2896
1378,16533,2050,2691,1152,-1548,-4782,92,-280,1767
1379,16533,2346,2690,1456,2854,-6894,-51,786,2926
1380,16964,2319,2689,988,-572,-2478,-203,643,1036
1381,17000,2277,2689,1860,1420,-7050,-216,602,1028
1382,17000,2428,2690,1484,-490,-2308,-212,-39,252
1383,16988,2258,2691,710,-744,-5662,256,-27,64
1384,16988,2313,2690,314,-1552,-3648,340,478,70
1385,17035,2322,2688,1494,-1198,-8264,-580,-399,-89
1386,17047,2326,2689,-558,4012,-4860,-148,-367,-408
1387,17047,2394,2689,-912,-1110,-1820,198,-100,603
1388,17035,2278,2691,-254,930,-4176,230,179,391
1389,17035,2394,2688,200,506,-4798,78,465,3583
1390,17047,2162,2690,-1000,3436,-2830,-312,68,453
1391,17047,2453,2689,1950,-756,-5784,7,1139,182
1392,17047,2267,2690,-1434,272,-470,249,-173,223
1393,17023,2508,2690,522,-486,-3470,413,429,647
1394,17023,2124,2691,-1214,628,-3832,240,8,1944
1395,17023,2245,2688,354,-2074,-4806,-196,-100,977
1396,17023,2395,2690,416,2980,-4336,166,-239,-372
1397,17011,2352,2690,1068,-804,-7326,421,-1002,258
1398,17011,2386,2690,-1438,864,-5358,-193,773,-193
1399,17023,2421,2690,-1288,2580,-3902,217,449,37
1400,16988,2403,2689,536,-728,-3002,-138,287,412
1401,16988,2385,2689,-1712,1842,870,129,-133,841
1402,16988,2343,2691,-338,-932,-3580,165,624,114
1403,16988,2433,2690,1430,-1228,-5516,133,659,-679
1404,16988,2362,2690,-1286,1340,-1536,320,163,87
1405,16988,2592,2690,1502,-608,-9406,91,399,-782
1406,17000,2002,2687,-282,-514,1434,488,-735,-154
1407,16988,2402,2688,-2920,2012,-936,582,-303,196
1408,16988,2553,2689,-240,-1408,-4818,-35,-513,-514
1409,17000,2145,2690,46,-552,-3860,130,24,400
1410,17000,2316,2690,-1274,-642,-7392,-361,462,659
1411,16988,2293,2687,1792,-2878,-2258,-258,-326,367
1412,16988,2095,2688,1084,-2602,-2796,1205,506,-2005
1413,16988,2418,2691,640,-1866,-2738,511,-440,-19
1414,17000,2290,2690,-710,2004,-714,334,-264,223
1415,17000,2138,2689,662,476,-6288,120,-133,66
1416,16988,2561,2687,-110,-104,-2488,-377,1342,-529
1417,16988,2300,2688,-1178,-310,-3670,-622,-713,2651
1418,16988,2298,2690,206,1902,-6930,-445,367,1814
1419,17000,2660,2688,-1722,2578,-3726,-67,668,173
1420,17000,2043,2690,-1210,1530,-970,3,-545,-797
1421,16988,2390,2690,-782,-844,-8102,-1126,-846,5115
1422,16988,2517,2688,662,1488,-2440,-538,-427,-1705
1423,16988,2277,2689,-1134,-1802,-3658,17,-43,-823
1424,16988,2331,2688,-1236,228,-338,869,913,-505
1425,16976,2193,2690,800,2450,-4962,459,-354,267
1426,16964,2346,2690,-126,-626,-6158,-25,-284,612
1427,16964,2362,2690,1760,-358,-5656,-177,1090,576
1428,16976,2306,2688,-874,-1178,-1090,33,-417,644
1429,16976,2180,2690,2254,-2002,-4848,152,236,-19
1430,16928,2387,2692,-450,4556,-3326,236,-808,-1118
1431,16928,2520,2690,486,-1334,-5130,-41,-516,3067
1432,16892,2183,2690,-1552,592,-4896,214,-567,618
1433,16820,2349,2689,-750,-1902,-2042,-128,97,40
1434,16820,2381,2690,802,1580,-1614,427,65,-4
1435,16760,2236,2690,538,-1348,-4154,263,460,-213
1436,16760,2250,2689,42,-26,-2246,-64,-599,143
1437,16641,2335,2690,2380,-1182,-4316,294,-478,662
1438,16641,2411,2688,-2256,3618,-2696,-448,-751,665
1439,16282,2388,2688,-398,1102,-1596,233,274,547
1440,15756,2390,2690,-1304,298,-4596,-141,-128,-308
1441,15756,2434,2690,-784,2532,-3332,211,704,-570
1442,15218,2378,2690,-260,1000,-8558,30,-91,774
1443,15218,2379,2691,-856,906,-7132,-319,-170,-249
1444,14919,2331,2688,-1524,666,-3270,-312,-103,1081
1445,14919,2414,2689,-796,-570,-3318,-823,-450,1599
1446,14441,2518,2689,2226,-1654,-3560,168,-377,729
1447,14058,2554,2690,-1326,1200,-8918,-160,-204,544
1448,14058,2036,2691,-1118,-1392,-3352,-119,236,1216
1449,13783,2369,2688,-4432,876,526,43,36,3966
1450,13783,2464,2688,34,550,-8916,-25,8,-2262
1451,13496,2298,2689,1074,-2100,-2366,-174,-34,2990
1452,13245,2425,2689,-1854,-884,-5250,-580,167,653
1453,13245,2341,2689,-1312,-2324,-5420,272,-147,1081
1454,13137,2305,2690,-2078,2450,-3946,-290,287,3203
1455,13137,2466,2691,-1676,562,-3996,233,84,2822
1456,13137,2203,2691,-1378,2332,-5304,-655,-615,2619
1457,13137,2358,2690,-654,-892,-5630,-480,659,745
1458,13137,2247,2689,-1562,-478,-3576,-47,75,3150
1459,13137,2290,2689,668,-1900,-10190,889,640,90
1460,13137,2482,2690,-1512,-908,-5500,179,-318,1915
1461,13125,2296,2690,-2260,-2720,-3848,-358,-144,3580
1462,13125,2436,2689,-1250,-3180,-4018,-403,-69,3827
1463,13125,2034,2689,-1358,-1562,-3326,-354,71,3547
1464,13125,2278,2689,-2868,-490,-2748,-616,414,3736
1465,13137,2362,2690,-340,-1142,-4648,424,265,3238
1466,13125,2383,2690,-632,2220,-5832,-710,-221,4057
1467,13125,2376,2690,-3152,824,352,-158,335,3751
1468,13137,2487,2689,-1416,194,-2168,-12,-1259,2961
1469,13137,2186,2692,-1418,2564,-1918,172,294,2304
1470,13137,2280,2691,1066,-1952,-3700,314,-24,3041
1471,13137,2305,2689,-4066,-512,-2864,453,-446,2678
1472,13137,2329,2690,-128,-240,-6304,-271,589,3907
1473,13137,2426,2688,-716,-230,-4014,-106,-1063,1859
1474,13137,2290,2688,-2006,1614,-6332,-119,525,3270
1475,13137,2641,2689,-1080,518,-1766,-309,-643,3928
1476,13137,2167,2691,-2242,1556,-4712,217,116,4202
1477,13137,2264,2689,848,-1100,-4280,-96,500,3220
1478,13125,2228,2691,-1616,-466,-4024,524,-227,3315
1479,13125,2366,2689,-576,-2084,-5618,-371,-151,3421
1480,13125,2330,2691,-1130,2630,-3392,-41,-118,2651
1481,13125,2367,2689,-742,-1750,-3574,127,821,3288
1482,13125,2544,2689,-2482,-28,320,-257,-112,3111
1483,13125,2269,2691,-1612,-1062,-3960,14,-218,3073
1484,13125,2295,2690,-572,-1522,-5376,123,144,3559
1485,13137,2382,2689,-524,542,-4440,-183,180,3497
1486,13137,2263,2690,-998,-1988,-4268,10,586,3512
1487,13137,2370,2690,-264,648,-5208,-280,-513,2330
1488,13137,2383,2691,-444,-1108,-4104,156,-21,2752
1489,13090,2325,2690,-1448,1806,-2896,43,-240,2598
1490,13090,2343,2690,-622,-2072,-3010,110,-110,2313
1491,13090,2297,2691,-1470,-244,-2366,208,-976,3486
1492,13066,2334,2689,-2818,1412,-5054,36,363,1950
1493,13066,2208,2689,-1970,294,-2480,350,310,2896
1494,13066,2280,2690,-1770,86,-7454,304,1406,-1876
1495,13066,2440,2688,-994,-532,-6164,39,-672,1661
1496,13090,2535,2689,-2224,652,-5638,282,637,2227
1497,13090,2323,2690,-1430,-2084,-3458,-122,328,2330
1498,13078,2142,2688,-2122,-2068,-2038,256,-27,2681
1499,13149,2220,2688,-386,-92,-3020,1321,1129,-1893
1500,13149,2299,2690,-1622,228,-6080,94,-325,3067
1501,13185,2445,2690,-2248,872,-3476,907,-1095,1130
1502,13185,2311,2688,-920,326,-7518,214,186,2651
1503,13185,2474,2688,-2694,-766,-2856,-551,-154,2934
1504,13185,2268,2689,-1940,280,-1774,-312,-716,2993
1505,13173,2288,2689,-192,-1792,-4784,391,-24,2516
1506,13185,2256,2690,-1544,-696,420,-300,824,3795
1507,13185,2277,2689,-3338,-1212,-4984,223,554,3150
1508,13173,2196,2689,-1548,1188,-8260,511,1008,-166
1509,13173,2540,2689,-498,-800,-6188,-122,675,2985
1510,13173,2525,2690,-2378,1876,-1832,-232,675,3527
1511,13161,2018,2690,-2172,-834,1636,362,347,2981
1512,13161,2292,2690,-494,2084,-1688,572,-300,3379
1513,13149,2470,2691,-888,168,-6898,110,-926,1988
1514,13149,2297,2690,-2042,-710,-174,265,-69,2416
1515,13078,2175,2689,-972,-1878,-7148,-474,-567,4620
1516,13078,2388,2688,106,-1188,-6616,-142,404,3388
1517,13078,2338,2690,-2320,2276,-2434,7,-364,3338
1518,13090,2331,2690,498,-1252,-1730,211,980,3203
1519,13090,2295,2689,-1814,-274,-4078,282,34,2221
1520,13090,2257,2689,-2500,-1118,-4366,643,182,2646
1521,13090,2368,2689,-1784,3382,-5212,-229,81,2864
1522,13090,2396,2688,-1518,-3576,-904,204,192,3091
1523,13090,2305,2690,-2278,1190,-4258,666,62,2498
1524,13161,2503,2690,-1098,250,-5748,98,1199,2581
1525,13257,2063,2687,-2116,-96,-3088,372,589,2805
1526,13257,2337,2689,-116,360,-4354,-274,494,2666
1527,13245,2436,2690,-478,-354,-5142,-225,161,2861
1528,13245,2302,2689,-1970,422,236,84,-406,2742
1529,13305,2437,2689,-498,-2204,-3658,424,-497,2363
1530,13305,2355,2689,594,154,-3566,960,-713,2572
1531,13496,2541,2688,-1756,-1658,-6026,30,284,3315
1532,13652,2053,2689,-860,3076,-3616,-232,-53,3114
1533,13652,2361,2688,-1244,-1976,-2990,94,-1139,3046
1534,13771,2330,2690,-2624,260,330,-125,-611,3129
1535,13771,2367,2691,-1454,-2304,-5366,185,-93,2861
1536,14082,2390,2689,-2310,-1050,-1382,-471,1069,2038
1537,14536,2337,2689,-1930,-168,-2502,27,1437,2908
1538,14536,2562,2689,-2386,-1072,-3830,711,-151,2100
1539,15146,1976,2689,-2036,3286,-4702,633,-882,3081
1540,15146,2407,2691,-54,-1834,-3490,627,-453,2286
1541,15756,2298,2690,22,136,-5832,-64,192,2985
1542,15756,2368,2689,686,-946,-3744,-193,-361,2363
1543,16318,2396,2688,-2340,3460,-2360,188,281,4199
1544,16521,2308,2690,1918,-1012,-5488,7,1523,2752
1545,16521,2558,2690,2758,1580,-1368,356,373,3203
1546,16509,1997,2692,-130,-2200,-8198,-38,198,1254
1547,16509,2436,2693,-812,1422,-2506,-229,751,809
1548,16509,2297,2688,1098,-876,-7850,-287,-30,680
1549,16509,2346,2689,1470,-1340,-3680,121,100,948
1550,16509,2379,2689,-1602,-382,-4540,246,-1253,-921
1551,16461,2362,2689,92,-992,-5900,-277,-529,1257
1552,16461,2567,2689,-1716,4018,-4416,-487,812,1249
1553,16234,2204,2690,202,-548,-1750,-496,-218,933
1554,16234,2306,2689,268,1002,-3918,-238,304,1013
1555,15732,2340,2690,376,-2522,-4282,472,557,-535
1556,15732,2247,2689,-1584,738,-2136,-144,-582,627
1557,15098,2269,2689,-890,878,-1808,-1187,147,3046
1558,14680,2382,2690,1840,-150,-2900,-664,-144,373
1559,14680,2162,2689,-2496,-244,-7920,569,-615,848
1560,14249,2329,2689,-6146,242,-1120,672,563,780
1561,14249,2400,2689,-154,464,-6574,194,-161,-240
1562,13939,2276,2689,-2694,-2108,-3758,-51,-672,2283
1563,13783,2180,2690,-2144,152,-2784,-125,598,3804
1564,13783,2664,2689,-96,-478,-3614,165,-1466,2168
1565,13496,2146,2690,-1616,848,-6076,598,-49,2283
1566,13496,2328,2689,-2680,-1056,-4988,462,-513,2973
1567,13161,2204,2689,-2210,1150,-4042,491,-1406,2713
1568,13161,2414,2688,-1692,-2004,-1814,340,-8,3948
1569,12898,2112,2689,-3034,-1922,-4748,-251,622,1767
1570,12791,2384,2689,-2288,-116,-1244,501,411,2469
1571,12791,2236,2689,-1384,1376,-7306,-403,1131,2586
1572,12587,2302,2689,-616,138,-1702,369,-558,2165
1573,12587,2348,2690,-1584,-1010,-5946,414,-599,3321
1574,12360,2323,2688,-876,-282,-2970,159,503,2831
1575,12360,2549,2688,-2910,4460,-4464,-332,-361,3008
1576,12169,2264,2689,-2232,-970,-1180,-374,840,3197
1577,11882,2336,2689,-2268,2834,-2680,23,-1364,3223
1578,11882,2297,2688,-1236,-1190,-6352,-1058,323,3559
1579,11655,2303,2690,-3340,-526,-1042,204,-1548,4756
1580,11655,2371,2690,-3542,1604,-8192,-19,-485,4576
1581,11607,2351,2689,-3080,-64,6,17,554,4228
1582,11607,2542,2688,-1306,-32,-6202,-184,-314,4125
1583,11523,2204,2689,-40,-2568,-1068,311,-205,4208
1584,11511,2351,2691,-626,2854,-3230,608,414,3792
1585,11511,2404,2691,-3666,-1724,-7238,269,-821,4048
1586,11499,2311,2691,-4092,1492,-1840,-99,-148,6247
1587,11499,2391,2689,-2478,-60,-6914,-464,-103,4449
1588,11511,2328,2687,-1166,994,-2532,-154,103,5224
1589,11511,2337,2690,-932,-812,-4252,482,1272,4252
1590,11499,2298,2692,758,-1838,-6808,592,33,4561
1591,11499,2324,2690,-2616,-534,-5196,-345,532,4046
1592,11499,2467,2689,-974,480,-2450,7,-154,7892
1593,11511,2329,2688,-2810,64,-1354,-438,-382,5086
1594,11511,2375,2690,-1170,1392,-6668,-367,-34,3332
1595,11499,2335,2692,-908,664,-4564,643,-554,3963
1596,11499,2278,2692,-2114,84,-5228,531,-64,4237
1597,11499,2343,2688,-3152,-226,-5212,-342,144,4900
1598,11583,2306,2690,-2600,-2688,-3478,-161,1405,3668
1599,11583,2281,2688,-1662,648,-3782,-665,303,3579
1600,11655,2247,2690,-2486,-1292,-2776,-416,901,4455
1601,11655,2277,2692,-4114,-658,36,834,526,9309
1602,11643,2301,2690,700,1228,-6356,-12,773,5163
1603,11655,2289,2689,-2602,-906,-3468,391,490,3562
1604,11655,2229,2691,234,-2144,-4298,133,55,5039
1605,11726,2333,2691,-4288,1196,-512,-86,-626,3813
1606,11726,2351,2689,-788,-2648,-4900,-180,-415,3936
1607,11774,2265,2691,-3130,914,-5316,210,-593,4838
1608,11774,2373,2690,-2734,-1720,794,-141,-252,4538
1609,11966,2381,2687,-694,-1870,-3906,317,-313,4561
1610,12253,2142,2691,-2672,2426,-1360,94,-155,3512
1611,12253,2626,2690,-948,-766,-6550,-144,-287,5012
1612,12456,2187,2688,-680,442,-2226,243,8,3527
1613,12456,2386,2688,-3344,-946,-4148,-416,1030,4104
1614,12456,2542,2690,-3244,788,-2362,-112,243,5507
1615,12456,2033,2689,-1934,-1674,-6156,-513,-545,8416
1616,12456,2415,2689,-1362,-1366,-4986,346,205,4376
1617,12480,2463,2689,-1724,-1762,-3862,214,170,5445
1618,12480,2046,2689,-286,-1430,-798,-28,-154,4561
1619,12492,2338,2688,-1804,-94,-3372,-406,351,3542
1620,12492,2354,2690,-1716,1986,-5842,130,-262,4464
1621,12659,2268,2690,-2124,32,-6458,688,-469,3742
1622,12803,2368,2689,-1506,448,-5318,414,-227,3459
1623,12803,2281,2690,-1028,308,-7174,834,-224,4140
1624,13018,2353,2689,-1410,1128,-4130,152,-62,4078
1625,13018,2422,2690,-2012,446,-1368,-90,-1126,4974
1626,13018,2393,2689,-2378,-648,-4262,-219,167,6056
1627,13018,2426,2690,-226,-4000,-1116,-487,-28,7806
1628,13018,2306,2689,-3708,1190,-5320,314,-507,5024
1629,13054,2366,2690,-1444,-3202,-4054,139,1097,3329
1630,13054,2316,2690,-1692,2360,-3198,107,516,3603
1631,13185,2626,2687,-68,-1522,-4772,-312,602,5675
1632,13185,2047,2690,-2398,646,-4436,-154,116,4856
1633,13520,2335,2692,-1238,312,-5950,-629,-297,4930
1634,13520,2383,2690,-2346,1562,-4606,-351,-230,4440
1635,13891,2319,2691,-268,570,-2732,433,-666,3574
1636,14405,2289,2691,-3256,2352,-8340,-406,-561,3857
1637,14405,2351,2690,360,30,-5628,-58,296,3812
1638,15039,2610,2690,-2734,-2070,-1160,-57,249,4847
1639,15039,2071,2688,568,290,-3934,-425,1545,3217
1640,15122,2385,2689,-338,-1492,-762,179,-1135,1753
1641,15122,2375,2692,-558,-286,-5776,43,989,2905
1642,15421,2302,2692,-976,-1702,-3382,398,271,1941
1643,15768,2322,2689,770,-466,-5986,-303,-107,1806
1644,15768,2276,2688,458,-1370,-4788,-690,-192,2410
1645,16091,2574,2689,-2882,1696,-2054,-132,249,2422
1646,16091,2153,2689,2704,-980,-4102,-296,-74,1496
1647,16151,2275,2690,-1112,-66,-5172,155,-447,2430
1648,15947,2249,2692,298,-2124,-6118,-222,748,1537
1649,15947,2362,2688,-3566,-980,-1820,-519,412,1084
1650,15708,2417,2690,-578,870,-6540,-413,417,-157
1651,15708,2302,2690,-316,-278,-2004,508,179,1016
1652,15373,2555,2691,-18,-204,-1978,356,88,606
1653,15373,2213,2691,-682,-432,-6642,-19,-18,1290
1654,15051,2278,2690,-164,1302,-5914,-296,602,1325
1655,14931,2416,2689,-974,-1574,-4932,-271,-262,992
1656,14931,2257,2689,-1412,1154,-3734,78,634,692
1657,14931,2355,2689,-840,-634,-4234,372,570,1222
1658,14931,2289,2690,-1422,-1044,-5260,27,459,1800
1659,14931,2267,2688,-334,-196,-5206,114,-281,1207
1660,14931,2266,2689,-1116,-548,-3700,-261,748,1325
1661,14955,2444,2689,244,-1962,-3862,-409,-246,1623
1662,15122,2214,2690,-1348,162,-4228,-526,-164,2539
1663,15122,2386,2690,1004,-394,-4832,-287,878,1228
1664,15134,2288,2688,74,-2296,-2078,-109,-154,2548
1665,15134,2329,2690,-404,-336,-2160,-25,186,1573
1666,15230,2373,2689,746,-1696,-1942,81,-554,143
1667,15230,2217,2690,-1320,-1148,-4106,-109,-1117,1169
1668,15230,2337,2691,-862,-1914,-6180,-457,123,2315
1669,15194,2113,2688,6,1132,-3868,-152,661,532
1670,15194,2430,2688,-2714,-842,-2752,236,306,1864
1671,15122,2176,2690,858,-674,-7088,-283,1053,3014
1672,15122,2295,2689,-2366,2020,-1656,-158,-570,2018
1673,15062,2299,2690,-1396,-1250,-1344,-119,274,388
1674,15062,2206,2689,618,546,-3064,88,-719,1187
1675,14919,2599,2689,-390,-1900,-7346,-1061,-672,1747
1676,14596,2193,2691,-42,416,-3670,-351,929,1835
1677,14596,2322,2689,-742,464,-3682,85,1018,1623
1678,14465,2334,2689,-1570,1070,-1572,331,-894,1921
1679,14465,2235,2691,784,-2034,-3046,87,-390,385
1680,14333,2223,2690,-1704,-48,-2866,-361,909,3485
1681,14202,2193,2690,-1390,-522,-982,-419,-878,482
1682,14202,2308,2688,178,-196,-6140,127,615,3297
1683,14058,2260,2688,-582,1370,-6674,-45,1,2156
1684,14058,2560,2689,-396,2220,-4510,-90,-621,1290
1685,13903,2187,2691,334,-1330,-6084,123,106,2115
1686,13903,2246,2690,-826,766,-3672,-283,798,2451
1687,13783,2421,2689,1040,-2256,-180,-461,-745,3745
1688,13663,2280,2688,-2002,1062,-2088,682,81,2516
1689,13663,2362,2690,-42,926,-5182,108,202,2369
1690,13520,2292,2689,-1788,650,-3902,-109,-497,2725
1691,13520,2524,2690,-1448,442,-6268,-309,-891,2277
1692,13532,2267,2687,-2088,-300,-1582,-289,310,2646
1693,13532,2338,2689,-436,1078,-4498,-206,-685,3117
1694,13520,2473,2689,-1468,-340,-5524,43,-1012,2074
1695,13628,2346,2690,-320,936,-3646,243,1030,3801
1696,13628,2617,2691,-1324,1778,-5550,-135,-723,1290
1697,13652,2248,2689,-2172,-2288,-5736,-74,703,2377
1698,13652,2334,2690,302,896,-3288,259,90,2457
1699,13711,2463,2691,90,-4074,128,1208,-323,774
1700,13711,2336,2689,90,-248,-6700,937,-545,1169
1701,13723,2361,2690,-1368,-1084,-3822,4,-586,5849
1702,13795,2374,2690,-344,-16,-6896,-719,-224,4726
1703,13795,2631,2689,-590,2294,-762,-561,-986,3043
1704,13783,2295,2689,-3144,2190,-2368,-245,367,2651
1705,13783,2273,2690,-1880,-780,-2492,288,252,2472
1706,13783,2256,2690,-1158,2376,-9820,-445,662,5307
1707,13795,2419,2690,-4014,-54,-3582,114,-30,4343
1708,13795,2219,2690,-1358,1000,-5016,33,220,5121
1709,13783,2658,2690,-1038,-2106,-2748,-170,109,3088
1710,13783,2065,2689,850,-1924,-3772,420,322,2436
1711,13771,2346,2691,-2722,-710,-936,-119,-859,3878
1712,13771,2288,2690,-1346,110,-4448,265,-291,3185
1713,13747,2191,2689,-2924,1360,-10200,253,481,305
1714,13771,2355,2688,42,-964,-5294,-228,-649,2946
1715,13771,2416,2688,-1042,226,-5096,191,191,3181
1716,13795,2200,2690,-972,450,-1408,-22,859,3064
1717,13795,2318,2689,-650,-196,-1078,430,-741,2501
1718,13795,2279,2691,-1738,2436,-6436,220,173,2304
1719,13795,2305,2690,-1182,2650,-5966,-287,-336,2669
1720,13879,2479,2690,-1548,406,-6276,-354,657,910
1721,13950,2222,2688,-1900,-696,-3990,43,-342,2504
1722,13950,2383,2690,1126,-992,-1964,317,-68,1847
1723,14130,2229,2691,-654,784,-4694,258,131,2038
1724,14130,2349,2690,548,-68,-6196,-587,316,2537
1725,14524,2423,2689,-2348,914,-2608,-161,424,1950
1726,14524,2297,2690,42,-1554,-7260,185,980,2310
1727,15110,2422,2690,-1282,2350,974,-25,818,2486
1728,15768,2300,2691,-1328,200,-4990,918,373,2174
1729,15768,2432,2688,-702,-1750,-5142,537,920,910
1730,16497,2216,2690,178,-1744,-5256,-38,935,1705
1731,16497,2601,2689,2320,946,-2554,-319,211,132
1732,16988,1943,2691,898,-266,-5194,-229,-1123,-96
1733,17011,2427,2690,4514,-530,-4956,-487,402,1116
1734,17011,2403,2691,998,-662,-3732,433,-621,-222
1735,17035,2211,2690,-68,676,-4312,456,-2,-526
1736,17035,2289,2691,532,162,-2466,-325,46,-455
1737,17035,2292,2689,-960,-44,-1372,205,285,-178
1738,17035,2306,2688,70,-1012,-4718,191,-993,87
1739,17035,2356,2690,-1216,-728,-2420,249,624,-175
1740,17035,2242,2689,-674,2788,-5350,-416,744,326
1741,17035,2423,2689,-1006,1686,-1572,-45,93,214
1742,17047,2326,2689,292,1914,-4116,201,97,565
1743,17047,2333,2689,844,-1026,-4656,-393,-443,267
1744,17035,2332,2688,-1654,120,-2486,79,-84,388
1745,17035,2359,2689,-1536,2434,-5280,4,793,-190
1746,17023,2447,2690,-1562,2598,-1510,-354,106,718
1747,17047,2384,2688,-2020,-18,-298,114,33,-941
1748,17047,2406,2690,1844,-858,-7188,-260,-376,105
1749,17047,2326,2689,-444,1936,-136,-32,-122,509
1750,17047,2405,2689,-420,-1360,-4510,198,-272,432
1751,17047,2494,2689,390,-1522,-4184,298,739,196
1752,17047,2298,2689,-306,1650,-2638,-132,338,87
1753,17035,2448,2688,-730,-1536,-4072,-132,875,235
1754,17035,2315,2689,-80,-1268,-4848,-138,462,241
1755,17035,2398,2690,552,-136,-7772,-390,-151,1641
1756,17035,2387,2690,-446,-1722,-4684,-254,-119,52
1757,17035,2609,2691,340,2210,-1908,-99,-310,344
1758,17047,2215,2690,-2102,-422,-3122,114,-557,848
1759,17047,2160,2689,-1492,-1362,-2536,-196,110,81
1760,17035,2206,2690,576,276,-3994,368,-1073,-812
1761,17047,2416,2689,-1258,30,-3120,420,135,-36
1762,17047,2462,2690,546,-1000,-5020,498,30,995
1763,17047,2263,2689,-32,-678,-3884,333,-450,-434
1764,17047,2629,2689,-948,2036,-3254,227,-100,-546
1765,17047,2137,2688,-946,-822,-2184,-826,910,1965
1766,17047,2342,2690,-140,1214,-3128,101,-443,547
1767,17047,2209,2691,-90,-1352,-5100,631,1063,238
1768,17035,2400,2690,232,-1448,-5722,669,66,-75
1769,17035,2466,2691,-1250,264,-3464,292,288,1275
1770,17047,2140,2691,-70,-2174,-3516,162,-243,650
1771,17047,2345,2688,-1204,2542,-2698,-561,415,2369
1772,17023,2513,2690,972,-610,-3788,-232,-491,1564
1773,17000,2308,2691,-562,-1574,-174,663,145,556
1774,17000,2467,2690,360,-1976,-1518,49,163,3527
1775,17023,2296,2688,-440,-596,-3072,-74,300,456
1776,17023,2310,2691,-110,-196,-6522,-361,-135,951
1777,17035,2237,2689,-688,1246,-3296,-338,-291,193
1778,17035,2482,2689,1506,-352,-6010,85,-646,-31
1779,17047,2238,2692,552,-1744,-3904,240,-304,-502
1780,17047,2297,2690,-44,-670,-5712,-238,373,-803
1781,17047,2172,2691,416,-1948,-1082,-264,-481,79
1782,17035,2363,2690,-288,1876,-3286,-622,-294,-588
1783,17035,2484,2689,-222,596,-2300,-71,271,-1124
1784,17131,2230,2690,838,1410,-3942,108,221,-22
1785,17131,2591,2689,-132,-1062,-2268,56,-94,868
1786,17167,2136,2690,300,78,-4362,-58,449,715
1787,17358,2234,2689,104,-1146,-2302,-732,183,765
1788,17358,2400,2689,-1256,-692,-684,-345,78,-116
1789,17777,2263,2688,2830,-1192,-5268,333,849,1051
1790,17777,2385,2688,-1474,4100,1166,-223,544,-567
1791,18183,2367,2689,2850,-1174,-5092,140,443,-69
1792,18422,2535,2690,2700,3600,-7710,-264,-1063,-1142
1793,18422,2189,2690,-314,4,-3044,-406,97,-1103
1794,18733,2347,2689,2654,2566,-4148,456,-745,-1345
1795,18733,2294,2691,-420,120,-2868,598,-1288,-850
1796,18901,2356,2690,1522,-2278,-3700,763,90,-1486
1797,18901,2342,2689,1906,580,-4340,66,27,-1716
1798,18972,2293,2688,1414,-1076,-7608,-580,614,-1896
1799,18972,2587,2689,534,2004,-1448,-316,1085,-1466
1800,18972,2174,2690,310,-2618,-4028,195,1171,-1979
1801,18865,2292,2690,3054,3038,-6378,398,-329,-1943
1802,18865,2454,2690,1356,-2312,-3104,417,-837,-1772
1803,18853,2298,2690,664,-266,-4846,23,-488,-2356
1804,18853,2318,2688,-108,908,-5244,-901,-2,-1634
1805,18853,2301,2689,198,-2054,-2414,172,-87,-1489
1806,18901,2608,2689,-80,528,-3594,666,-389,-3001
1807,18901,1941,2689,236,-1824,-1902,375,-212,-1953
1808,18901,2363,2690,826,-286,-3508,288,-573,-2382
1809,18901,2117,2690,0,-992,-826,-406,-509,-2550
1810,18853,2376,2688,382,-262,-4266,-829,630,-1831
1811,18853,2083,2691,-184,942,-2018,-319,-37,-1920
1812,18793,2506,2690,2146,-824,-7502,-12,617,-853
1813,18614,2162,2688,-50,-1794,-2610,20,605,-2727
1814,18614,2284,2690,-422,1260,-4580,-51,399,-2032
1815,18243,2561,2689,1058,-454,-1206,-61,-418,-2164
1816,18243,2054,2689,1548,420,-3670,-171,-240,-753
1817,17980,2352,2691,1142,1206,-6026,198,-361,-2014
1818,17980,2203,2689,1834,-2930,-3186,-325,545,-1136
1819,17394,2341,2691,248,426,-3036,336,-269,-2913
1820,17131,2159,2690,-1216,-502,-3950,472,11,-5580
1821,17131,2185,2689,988,-1818,-2032,-303,134,-1133
1822,17107,2239,2689,788,-1726,-4130,427,-481,-924
1823,17107,2310,2688,-356,-942,-8150,-170,-294,-69
1824,17107,2307,2688,380,1636,-3760,-193,-207,188
1825,17107,2316,2690,420,208,-6452,-9,652,-888
1826,17107,2252,2690,-1712,2568,322,-86,62,-720
1827,17119,2293,2690,772,-322,-2278,198,786,512
1828,17119,2247,2691,1798,1348,-4100,382,-49,-682
1829,17107,2353,2691,244,-1226,-3048,-558,128,541
1830,17107,2369,2689,1612,2536,-6026,214,-481,-596
1831,17035,2320,2689,-388,-1762,-4898,49,-808,-54
1832,17035,2269,2691,478,3064,-3394,375,-675,-812
1833,17035,2309,2691,254,-1082,-3184,143,494,-1041
1834,17047,2314,2690,-1594,2088,-2326,-77,-373,214
1835,17047,2313,2689,1238,-866,-5688,-193,249,-812
1836,17047,2279,2691,-2444,626,-2002,14,30,1122
1837,17047,2329,2688,1080,1634,-6700,23,795,-1469
1838,17035,2321,2691,346,778,-2006,-80,-897,-281
1839,17035,2472,2690,162,-852,-3828,508,-167,-2680
1840,17035,2468,2690,1028,-1340,-2832,20,-624,-1292
1841,17035,2065,2690,66,208,-4260,107,234,-965
1842,17035,2356,2689,154,20,-4156,-28,361,-803
1843,17035,2194,2690,1036,-954,-6328,-148,357,-732
1844,17035,2372,2691,888,-976,-6032,378,205,-3122
1845,17047,2444,2691,1062,702,-5166,327,-653,494
1846,17035,2100,2690,134,1596,-1422,30,-201,129
1847,17035,2333,2690,-920,-1718,-1772,217,-107,-1455
1848,17035,2464,2690,2226,-2064,-5892,307,151,-1033
1849,17035,2285,2690,-804,2294,-2882,469,-354,-1233
1850,17035,2537,2689,250,-2264,-2320,272,510,-1115
1851,17035,2175,2689,6,2908,-4400,242,398,-435
1852,17035,2317,2690,478,-372,-4416,298,103,1620
1853,17035,2405,2691,0,-410,-1880,378,78,-1828
1854,17035,2305,2690,872,-1628,-3418,201,618,-611
1855,17035,2234,2689,-912,1836,-4866,-422,278,-1133
1856,17035,2325,2688,2552,742,-5604,-761,395,-638
1857,17035,2522,2690,1496,-3400,-2518,-212,621,-405
1858,17035,2276,2690,-170,48,-4176,298,-323,-761
1859,17035,2134,2689,1002,-1342,-7356,-64,-723,-213
1860,17035,2297,2688,1288,-804,-4904,198,338,-470
1861,17035,2469,2688,-752,2228,-3464,-848,84,-779
1862,17035,2446,2690,720,-600,-1044,-90,-307,-954
1863,17035,2062,2689,468,-2502,-3794,13,-352,-1867
1864,17047,2445,2690,-758,488,-860,-665,195,-1119
1865,17035,2530,2691,350,-2654,-3532,604,1119,-1121
1866,17035,2167,2690,-26,706,-4552,456,1190,585
1867,17035,2164,2689,1690,-2534,-4004,-506,341,347
1868,17035,2617,2690,-1752,1206,-2794,-794,-332,356
1869,17035,1905,2690,1134,-1632,-3532,169,55,-2182
1870,17035,2415,2689,-602,-30,-2132,-12,-43,-543
1871,17035,2309,2689,424,-302,-6352,91,884,-273
1872,17047,2250,2690,-928,370,-3962,11,-23,-219
1873,17047,2391,2689,288,-1250,-2452,-332,93,-532
1874,17047,2349,2690,-158,-2024,-3078,181,-462,-287
1875,17047,2449,2690,454,188,-5758,-67,-30,-3349
1876,17047,2340,2689,1688,-2398,-5412,204,-447,-830
1877,17047,2280,2689,-758,-606,-6656,-513,573,-487
1878,17047,2274,2689,1720,-1224,-4970,-277,-598,-493
1879,17047,2310,2690,-1188,1940,-2936,-545,-246,588
1880,17047,2376,2689,650,-1700,-5472,10,767,-549
1881,17035,2316,2690,-1702,1268,-1004,330,113,-57
1882,17035,2293,2689,336,920,-6992,-70,376,-826
1883,17047,2387,2690,-650,1412,-1378,39,294,-720
1884,17035,2306,2690,688,-1968,-3676,-212,-539,-809
1885,17035,2288,2689,876,2308,-1706,-425,-176,-1215
1886,17035,2335,2690,1298,-2622,-4522,233,-399,117
1887,17035,2407,2690,-220,2014,-1538,156,-1078,-935
1888,17107,2304,2689,598,-744,-8150,466,367,-882
1889,17107,2320,2687,2252,1226,-4344,-348,671,-1242
1890,17107,2426,2690,-1670,-62,-2650,569,208,-446
1891,17035,2336,2690,700,558,-6154,-38,53,-1478
1892,17035,2263,2690,-1248,606,-634,-9,-1059,-888
1893,17035,2334,2690,486,-1704,-2786,-264,-389,-3703
1894,17035,2363,2688,-182,466,-2034,269,256,-1354
1895,17011,2343,2691,1930,-1164,-4300,411,-494,-1846
1896,17011,2405,2688,492,1456,-7992,-70,-170,624
1897,17000,2396,2688,670,-994,-4418,478,541,-903
1898,16988,2307,2688,896,1532,-6444,-174,-69,-1990
1899,16988,2406,2689,-1700,108,-1476,-90,49,1284
1900,16976,2242,2689,3128,324,-8166,194,472,400
1901,16976,2398,2690,188,-844,1768,123,-681,-950
1902,17000,2277,2690,464,-930,-4524,-164,113,-296
1903,17000,2319,2690,-1666,2160,-2650,-535,-268,1390
1904,17000,2369,2690,1554,-1980,-6806,-9,-297,-204
1905,17047,2260,2690,930,1116,-3760,85,494,-384
1906,17047,2436,2690,246,734,-2838,-380,-888,-423
1907,17047,1973,2689,810,2106,-2860,56,-421,-36
1908,17047,2286,2690,1284,272,-6086,-693,-338,-45
1909,17035,2653,2688,754,-1696,-2100,385,-226,-776
1910,17035,2129,2689,-476,2992,-5784,-445,-558,-717
1911,17035,2452,2690,1280,364,-3750,120,-291,-597
1912,17047,2493,2690,-1490,3218,-7518,-158,-323,594
1913,17047,2197,2690,1452,292,-8118,-371,656,-337
1914,17047,2312,2687,190,-644,1182,685,417,-708
1915,17047,2426,2691,-386,-1126,-2292,-429,-364,278
1916,17047,2327,2691,1544,-1924,-4504,188,370,-408
1917,17035,2329,2689,440,-364,-5158,-57,306,-1047
1918,17035,2261,2690,-340,-658,-4216,101,-624,-776
1919,17035,2358,2689,1364,-1414,-4844,311,287,-1209
1920,17035,2231,2690,0,762,-1394,349,-342,-1231
1921,17047,2305,2689,-506,184,-4694,-158,363,-1949
1922,17047,2165,2690,-1720,2920,-2514,36,-478,-1036
1923,17035,2403,2688,-88,-272,-1216,-9,18,-2076
1924,17047,2442,2689,126,180,-1694,140,376,-1027
1925,17047,2407,2688,-1044,92,-1780,-238,-386,-776
1926,17047,2542,2690,1368,-1360,-5596,120,500,-1233
1927,17047,2188,2690,264,518,-7162,146,255,-697
1928,17035,2315,2690,-186,-300,-4576,-41,246,-847
1929,17035,2384,2690,-456,1042,-234,-816,-72,2690
1930,17047,2372,2690,-1030,354,-2796,211,-75,-1581
1931,17035,2362,2689,712,-1370,-4050,639,-393,-3338
1932,17035,2140,2688,96,-1916,-5442,27,49,-944
1933,17035,2573,2689,-114,688,-3988,-119,-138,-2433
1934,17035,2205,2690,-940,422,-1234,-716,332,34
1935,17047,2270,2690,376,-938,-3788,-283,-535,880
1936,17035,2172,2689,1652,442,-5848,627,-14,-735
1937,17035,2307,2689,-468,-730,-3398,-19,-2,-691
1938,17047,2171,2690,26,-398,-5412,-832,177,1013
1939,17047,2305,2689,598,-118,-3836,-51,287,-390
1940,17035,2294,2689,-236,-534,-3304,181,-961,-449
1941,17035,2235,2689,126,3340,-1642,104,27,-605
1942,17047,2415,2689,962,-1710,-3538,482,-211,1004
1943,17035,2450,2690,1172,10,-2116,-516,208,1275
1944,17035,2263,2689,1482,-448,-6106,-490,-94,193
1945,17047,2421,2690,-1124,1758,-3614,633,503,-4832
1946,17047,2218,2688,-194,728,-3392,107,-1031,-1316
1947,17035,2393,2688,-336,-1296,-2944,223,335,3571
1948,17035,2213,2691,360,-848,-2876,595,-373,-985
1949,17047,2336,2691,96,-526,-3764,-300,370,-1342
1950,17035,2381,2690,924,-1136,-4144,-287,325,-844
1951,17035,2300,2690,22,1080,-3798,217,-173,-685
1952,17047,2287,2690,788,816,-5738,72,-94,-823
1953,17047,2285,2690,128,1676,-5174,333,729,-1044
1954,17047,2300,2689,458,-3058,-5614,640,-611,-1731
1955,17047,1923,2689,-846,270,-3392,-1081,456,-691
1956,17047,2528,2689,1280,330,-3942,-952,186,-735
1957,17035,2151,2690,-594,996,-4550,-458,-84,-738
1958,17035,2410,2691,-168,164,-3002,-142,33,-1039
1959,17035,2072,2691,370,738,-3638,246,144,-278
1960,17035,2289,2690,30,-418,-4094,-99,-176,-207
1961,17035,2328,2689,802,-498,-4880,-312,205,-420
1962,17035,2286,2689,-624,182,-3944,-290,87,-582
1963,17035,2448,2689,356,652,-1818,-225,-1037,-1295
1964,17047,2309,2690,1206,1320,-4472,-38,43,-481
1965,17047,2560,2690,262,1848,-4764,62,290,-2173
1966,17047,2136,2688,464,-1370,-5062,-268,-164,-137
1967,17047,2308,2689,-1574,3826,-4108,-699,-354,-865
1968,17047,2372,2689,1290,-1322,-5280,-500,-112,-938
1969,17047,2330,2689,496,-256,-74,931,-233,-1398
1970,17047,2370,2688,-76,-310,-5136,953,281,-1106
1971,17023,2235,2690,-168,2464,-5424,327,744,-349
1972,17023,2531,2690,-988,-696,-5412,194,681,-2615
1973,17011,2106,2690,208,2420,-5070,-377,265,-437
1974,17011,2303,2689,-1250,190,122,-442,-389,-1295
1975,17047,2392,2690,-174,-264,-3296,730,-265,-1419
1976,17035,2307,2692,-920,2144,-3792,511,18,-564
1977,17035,2460,2689,-684,-1796,-7940,1147,-345,-2209
1978,17035,2276,2690,-290,1334,-3666,-35,259,-287
1979,17035,2559,2689,950,-1054,-4666,-152,636,-1275
1980,17035,2189,2689,-1008,-834,1100,-245,-377,-1095
1981,17035,2314,2689,-768,1100,-6458,-61,1322,-16
1982,17035,2384,2689,1048,-1280,-5730,227,-386,-682
1983,17047,2316,2690,980,-70,-4602,360,-557,-269
1984,17047,2352,2691,-632,-258,-5222,-38,43,-187
1985,17107,2401,2689,232,362,-1722,-21,129,-322
1986,17107,2296,2689,892,-2294,-3264,156,-34,-965
1987,17143,2307,2689,-714,1460,-2474,-145,-294,-484
1988,17143,2332,2690,970,-24,-3430,120,-189,-1725
1989,17131,2343,2691,-1774,1670,-2942,317,520,43
1990,17167,2345,2689,504,894,-2216,-83,309,-626
1991,17167,2401,2689,744,-260,-2014,317,-1059,-1934
1992,17322,2445,2690,-202,-1494,-3994,181,-501,-497
1993,17322,2357,2689,568,-1518,-6950,236,-107,-806
1994,17454,2193,2689,-734,726,-5036,-616,-62,-2020
1995,17789,2300,2689,-524,218,-6904,-93,-135,-1310
1996,17789,2196,2689,310,-774,-3100,78,182,-626
1997,18076,2277,2690,1174,-1518,-2282,-151,395,-661
1998,18076,2437,2690,-886,820,-3404,-422,-307,2728
1999,18387,2293,2691,2056,502,-4956,-319,119,-1201
2000,18387,2447,2689,72,984,-1692,-129,-377,-1404
2001,18781,2376,2689,1576,766,-6520,72,103,-1339
2002,19247,2212,2690,292,-146,-6288,198,208,-1495
2003,19247,2010,2689,584,-298,-6868,-245,-59,-1021
2004,19702,2463,2690,1834,-234,-3486,-273,1018,-965
2005,19702,2279,2691,1188,-932,-3354,-96,398,-1722
2006,20013,1960,2691,240,-2874,-2154,-119,802,-1345
2007,20013,2237,2689,2208,-520,-2870,-139,-777,-886
2008,20072,2177,2690,306,1544,-3830,146,-465,-2041
2009,20072,2203,2689,3170,-654,-7216,275,-94,-1215
2010,20072,2253,2689,-382,602,-2976,366,-156,-2444
2011,20060,2467,2690,1122,-1298,-1864,475,220,-2827
2012,20060,1855,2689,2794,-1614,-6580,110,465,-3750
2013,20060,2352,2691,-1884,1536,-2852,-183,-866,-2810
2014,20060,2230,2689,2830,-2260,-5442,-135,-103,-2070
2015,20072,2281,2688,1844,-504,-4536,137,113,-4115
2016,20037,2494,2689,838,-3582,-3472,779,-577,-3105
2017,20037,2177,2689,656,-414,-2420,756,176,-3010
2018,20049,2374,2691,1536,-50,-4642,420,147,-2677
2019,20049,2407,2690,2642,1782,-7980,-93,-767,-3099
2020,20037,2369,2690,958,-558,-4698,-167,-30,-2212
2021,20037,2104,2689,346,890,-896,149,-46,-3225
2022,20037,2287,2689,1178,-2160,-1966,65,-8,-1955
2023,20049,2244,2690,3298,-608,-5544,511,563,-2117
2024,20049,2134,2691,934,1026,-3156,185,230,-1820
2025,20049,2203,2689,2842,-3344,-1862,372,-465,-6176
2026,20049,2130,2689,772,670,-5458,152,417,-2639
2027,20037,2326,2689,1406,-968,-3256,679,-1069,-3594
2028,20060,2164,2691,836,-906,-3194,289,-24,-2550
2029,20060,2221,2689,2180,-1384,-1090,185,-173,-3355
2030,20060,2149,2689,474,3292,-3518,-232,-401,-2147
2031,20060,2233,2689,1108,-558,-3692,62,-535,-2827
2032,20072,2184,2689,1250,-730,-8218,324,215,-2574
2033,20072,2209,2689,752,3338,-6174,333,-47,-2268
2034,20132,2224,2690,2948,-1760,-4264,220,240,-3025
2035,20288,2125,2688,-644,-198,-5042,-25,770,-2108
2036,20288,2252,2690,138,1498,-1914,-96,-262,-2368
2037,20718,2234,2690,2912,334,-8958,-213,271,-3117
2038,20718,2226,2690,-596,248,-1932,-335,87,-2863
2039,21077,2213,2689,2014,-1344,-1798,4,290,-2677
2040,21077,2281,2689,46,-1962,-6334,114,335,-1828
2041,21304,2167,2690,2910,1816,-3972,158,687,-2183
2042,21436,2533,2689,2354,74,-4558,-726,-199,-3140
2043,21436,2096,2690,1248,1472,-4096,-196,652,-3441
2044,21507,2221,2690,2918,-652,-3516,-445,147,-3211
2045,21507,2417,2689,356,2120,-1078,127,-291,-3025
2046,21507,2323,2688,4256,-712,-5714,-187,-469,-3240
2047,21627,2344,2689,2072,486,-1592,33,-868,-3641
2048,21627,2216,2691,3700,114,-3648,-642,-364,-3558
2049,21902,2361,2688,-352,2548,-3942,-93,-551,-4395
2050,21902,2317,2688,644,-1420,-3082,107,-154,-3706
2051,22237,2066,2690,3418,1034,-6326,85,405,-3729
2052,22237,2611,2689,892,-1686,-5312,56,-78,-3001
2053,22571,2291,2689,2726,-406,-3316,621,-748,-3992
2054,22799,2145,2690,2468,-3782,-5690,298,481,-7310
2055,22799,2153,2689,1710,100,-508,-132,1243,-4964
2056,22811,2358,2689,2644,-1750,-6214,123,-161,-4243
2057,22811,2327,2689,1512,1114,-2760,404,-157,-4587
2058,22799,2531,2689,2816,224,-6590,-280,-465,-4360
2059,22799,2162,2689,2702,1898,-6440,113,376,-4865
2060,22787,2224,2690,3562,256,-5104,795,-424,-4563
2061,22787,2316,2689,1796,946,-4254,265,-774,-5465
2062,22787,2237,2689,1532,-664,-1694,223,-646,-5471
2063,22787,2284,2691,692,1134,-1510,-68,-190,-4738
2064,22787,2268,2689,2154,-3756,-1540,-316,868,-5389
2065,22787,2288,2690,3184,-110,-6760,-387,1002,-5459
2066,22787,2313,2689,2752,-1740,-6092,-262,194,-5047
2067,22799,2435,2689,1874,-1280,-3252,213,-914,-5174
2068,22799,2298,2688,898,112,-3518,188,-351,-4838
2069,22799,2003,2689,1542,-1498,-2196,75,5,-2754
2070,22799,2334,2690,1386,-262,-1982,233,-636,-4973
2071,22799,2228,2691,3288,-240,-7084,-119,983,-4888
2072,22835,2378,2688,2886,1488,-2150,-480,-37,-5669
2073,22835,2315,2689,1018,306,-2624,39,1072,-4740
2074,22835,2230,2688,1728,1798,-3404,597,-240,-5295
2075,22835,2205,2690,308,-712,-3358,207,-843,-4717
2076,22835,2278,2689,2338,-828,-6466,149,8,-5050
2077,22846,2220,2689,2110,1676,-3770,136,-383,-4832
2078,22846,2229,2689,1436,228,-5222,39,1890,-5315
2079,22870,2202,2690,4022,-2040,-5158,459,-43,-4823
2080,22835,2162,2690,-68,2436,-2292,362,-358,-5507
2081,22835,2233,2690,3646,-2266,-5658,653,-799,-2680
2082,22846,2212,2691,1022,1212,-2924,143,-542,-4737
2083,22846,2311,2689,2980,318,-3818,104,-324,-4968
2084,22835,2209,2689,1876,-1584,-2224,-458,405,-4584
2085,22835,2243,2689,262,2814,-5336,39,-94,-5041
2086,22846,2298,2691,1282,248,-846,626,-139,-4007
2087,22799,2241,2690,710,150,-3456,385,-742,-2200
2088,22799,2203,2688,1208,1246,-4888,110,-310,-4278
2089,22787,2281,2690,972,-1500,-4956,-200,357,-3966
2090,22787,2232,2689,1432,2102,-1580,-342,-1755,-4308
2091,22679,2305,2689,658,1918,-6292,-442,567,-4021
2092,22679,2370,2690,4026,-1410,-3464,107,74,-3762
2093,22607,2378,2689,248,-148,-1154,198,-1116,-4151
2094,22548,2371,2690,2802,-608,-7176,91,1023,-4608
2095,22548,2197,2689,422,944,-2834,294,-361,-4947
2096,22488,2306,2689,474,-1434,-3464,-191,-31,-5457
2097,22488,2458,2691,366,1022,-3126,246,1192,-3966
2098,22392,2288,2690,2706,-1138,-4292,346,-339,-5436
2099,22392,2376,2690,1074,390,-5282,330,-1393,-5722
2100,22261,2338,2692,3656,-1644,-5060,443,-247,-4691
2101,22093,2324,2689,1272,1374,-2890,-484,-291,-3673
2102,22093,2209,2687,3202,-1174,-5752,-216,452,-5294
2103,21782,2168,2689,1834,-348,-2470,317,-37,-5478
2104,21782,2385,2689,2510,174,-6656,101,-427,-4525
2105,21292,2267,2691,828,910,-4126,520,-444,-6035
2106,20814,2402,2689,2356,258,-3560,87,-228,-5339
2107,20814,2465,2690,2032,-1270,-5006,255,86,-5483
2108,20072,2478,2690,3806,2286,-9086,200,210,-4829
2109,20072,2212,2689,544,-2316,-5532,56,-253,-5059
2110,19295,2279,2690,1922,194,-4768,362,1042,-4343
2111,19295,2307,2688,1436,-1042,-3726,217,-472,-4599
2112,18602,2260,2689,1748,-904,-4554,185,-189,-3656
2113,17920,2443,2689,-362,-396,-3746,23,112,-3367
2114,17920,2427,2690,4028,-180,-6896,45,467,-2392
2115,17131,2496,2687,-2356,2080,-146,420,170,-2512
2116,17131,1949,2689,-1420,-1956,-1782,156,-367,-4407
2117,17131,2399,2689,-1256,978,-4900,346,500,-3255
2118,17131,2319,2688,-186,-1198,-3190,-190,-345,-2943
2119,17107,2211,2689,-146,-260,-4802,-113,-317,-1119
2120,17107,2306,2689,804,-786,-5622,940,405,-4319
2121,17107,2245,2689,510,740,-6680,288,354,-1171
2122,17119,2357,2688,-116,1714,-3862,265,-380,-173
2123,17119,2334,2689,94,-244,-5390,13,-5,-738
2124,17107,2264,2689,180,-528,-2824,-377,-367,-891
2125,17107,2310,2691,716,554,-4466,-113,738,-432
2126,17107,2268,2690,-1106,-96,-2668,300,-113,-58
2127,17107,2153,2688,2456,-2024,-5762,391,1256,-423
2128,17107,2285,2690,508,-1310,-4156,368,538,-1160
2129,17107,2144,2690,-354,-440,-4430,-122,-412,-842
2130,17107,2244,2688,-840,-82,-4636,-365,556,-850
2131,17119,2169,2690,1510,776,-4050,249,566,-921
2132,17119,2200,2690,-854,1542,-5500,107,-669,-1227
2133,17119,2180,2690,2312,-2588,-4712,249,188,685
2134,17107,2193,2690,1908,-150,-5912,-145,-218,-856
2135,17107,2266,2690,-1030,1994,-3248,-319,-678,-1460
2136,17131,2128,2689,1524,-1038,-5394,-45,398,-809
2137,17131,2260,2688,870,634,-2924,236,55,-876
2138,17143,2089,2688,-264,1654,-2686,17,-34,-1100
2139,17143,2298,2689,2326,-796,-4454,-181,808,-906
2140,17143,2368,2690,-2,1770,-3870,84,20,-1042
2141,17035,2264,2689,700,552,-2514,65,11,-1283
2142,17035,2354,2689,-282,1918,-1126,-232,-1047,-1186
2143,17023,2286,2691,590,-1242,638,178,-253,-724
2144,17023,2545,2688,750,4840,-4298,210,172,-1024
2145,16808,2175,2689,376,-1630,-4410,333,-170,-1215
2146,16186,2307,2689,1684,1642,-3892,462,547,-1204
2147,16186,2357,2687,-186,1156,-3500,-997,-15,-1086
2148,15230,2383,2686,3582,-522,-7450,275,830,-1484
2149,15230,2439,2688,8,5460,-6098,123,202,-1377
2150,14321,2470,2690,6364,-1762,-4796,-67,249,-1318
2151,14321,2305,2690,-2266,-326,-6256,259,-783,-929
2152,13532,2306,2690,-3874,1464,-4464,45,407,110
2153,12838,2378,2684,-1856,-2000,-1942,81,-427,851
2154,12838,2244,2686,-1554,1028,164,-90,-326,1752
2155,12468,2396,2689,-1456,2736,-5246,269,116,2044
2156,12468,2588,2689,408,-2446,-5486,68,363,2873
2157,12193,2057,2690,-4088,-562,-3802,155,-886,2536
2158,12193,2557,2690,-1692,452,-8426,-1032,-529,3592
2159,12121,1991,2687,-2460,-1052,-4222,-597,-697,3326
2160,12133,2330,2688,-754,-3008,-3276,395,154,1729
2161,12133,2326,2689,-2150,636,-3236,-35,265,5917
2162,12265,2184,2691,-2100,1630,-4644,62,439,3249
2163,12265,2207,2690,-2268,-766,-5702,-103,973,4326
2164,12599,2285,2690,-1420,388,-3606,-342,-164,3889
2165,12599,2242,2689,-2382,-578,-7148,-238,-577,4620
2166,12910,2325,2690,-1354,482,-632,30,852,4208
2167,13305,2526,2690,-882,-360,-3760,469,-2066,3925
2168,13305,2148,2690,-5798,-736,-3490,862,1335,2731
2169,13795,2283,2691,1490,-1036,-5838,75,125,5611
2170,13795,2408,2686,-4156,840,-6804,-1472,900,6235
2171,13879,2419,2687,-822,-1272,-1688,-345,172,5401
2172,13831,2273,2690,-852,-394,-4672,472,-999,3698
2173,13831,2318,2690,-2658,850,-3082,-22,-103,4302
2174,13723,2500,2689,-1660,206,-4250,-148,-666,4128
2175,13723,2193,2688,-1640,658,-3192,-38,894,3886
2176,13508,2352,2689,-876,-2562,-3494,10,46,3966
2177,13508,2394,2689,908,336,-2212,-371,-43,4037
2178,13245,2251,2690,328,-1540,-3666,566,259,2873
2179,13018,2338,2690,-3024,372,-4494,233,633,2902
2180,13018,2346,2690,168,-1766,-7248,-3,-167,1938
2181,12779,2315,2688,-26,1950,-4798,-42,-510,4063
2182,12779,2436,2688,-3334,-1170,-1494,100,-1336,2451
2183,12480,2318,2690,-274,-1352,-3560,659,440,2516
2184,12480,2413,2690,-2942,-86,1316,598,246,3035
2185,12396,2377,2690,-1926,-2180,-2682,371,-431,2020
2186,12372,2566,2689,-2112,2048,-5746,-342,475,2990
2187,12372,2255,2690,-498,-2462,-3270,-12,-891,3097
2188,12276,2295,2689,-8,-1738,-6656,598,144,3580
2189,12276,2365,2690,-1680,-986,-762,-294,541,3423
2190,12157,2262,2688,2140,-1014,-7420,214,-256,3724
2191,12157,2331,2690,-4166,1280,-1574,-400,52,954
2192,12037,2372,2689,324,-1774,-4076,-255,-167,2784
2193,11966,2509,2689,-1240,702,-3370,-141,1068,4305
2194,11966,1916,2688,-928,-1452,-3526,-48,322,2993
2195,12025,2371,2689,-794,1486,-5412,-203,-577,4697
2196,12025,2473,2689,-1188,-1570,-3892,107,-846,4753
2197,12133,2138,2688,-726,-646,-2998,-238,-910,3783
2198,12241,2288,2688,-2532,-702,-4782,-54,361,4953
2199,12241,2348,2688,-1226,-942,-3992,-219,20,4184
2200,12253,2366,2689,1096,-2900,-2076,-68,471,3830
2201,12253,2360,2688,-3318,-1778,-3666,-193,-431,5466
2202,12229,2450,2691,-1342,1246,-3228,214,81,6115
2203,12229,1924,2691,-2598,-1598,-4266,107,-72,4603
2204,12169,2438,2689,-2100,602,-6424,0,-25,5321
2205,12109,2072,2689,-2394,-26,-5140,-338,322,4544
2206,12109,2251,2690,-1478,224,-7004,156,783,4818
2207,12025,2343,2688,-942,-2084,-1680,-116,992,3963
2208,12025,2306,2688,-1180,2284,-4278,-203,-450,4546
2209,11882,2494,2690,-2694,-1978,-4240,301,630,4379
2210,11882,2166,2689,-684,1360,-762,49,-253,4815
2211,11738,2358,2690,-4300,-1328,-7402,769,313,3049
2212,11619,2254,2689,-2024,1670,-3638,-212,919,3400
2213,11619,2288,2690,-774,-1346,-4676,508,20,5289
2214,11547,2221,2690,-3340,-324,-6958,275,598,4974
2215,11547,2129,2690,-1666,-1380,862,440,-30,4526
2216,11523,2324,2689,-5080,1512,-232,1195,-526,2489
2217,11523,2285,2690,-902,-1588,-5008,782,-180,4240
2218,11559,2327,2690,-1830,-1008,-8080,185,-243,4853
2219,11559,2302,2689,-2610,524,-4690,-35,506,4871
2220,11559,2244,2689,-4124,530,-280,-458,169,3096
2221,11547,2292,2689,-1296,1790,-4654,314,541,4729
2222,11547,2324,2689,468,-2604,-3084,627,560,4040
2223,11547,2240,2691,-3502,994,234,-6,-256,5911
2224,11559,2266,2690,-2476,106,-5786,127,1138,4272
2225,11559,2363,2686,-386,-1658,-4794,-367,-605,5224
2226,11547,2157,2690,762,1246,-5928,-455,-116,3889
2227,11547,2564,2690,-1822,-924,-2506,-254,367,6397
2228,11619,1939,2690,-832,-1536,-4914,-116,-205,4040
2229,11619,2323,2688,-2294,-1338,-1610,624,285,4166
2230,11655,2264,2689,-1176,622,-2636,-41,332,4169
2231,11655,2246,2688,-1604,-570,-2380,-216,-243,3642
2232,11643,2257,2691,-1926,-166,-5200,94,989,4146
2233,11643,2240,2690,-1932,-1630,-5624,-309,-1244,3819
2234,11643,2273,2688,-4318,-370,-992,-633,-701,4620
2235,11643,2332,2688,968,-1034,-1678,-435,163,5849
2236,11643,2319,2688,-3764,2226,2458,-412,-1112,4529
2237,11655,2388,2690,1014,-1602,-3104,356,167,3503
2238,11655,2333,2690,-2586,-1754,-2068,110,-278,2911
2239,11655,2216,2688,-2540,1434,-6990,-810,170,6188
2240,11631,2261,2687,-4752,-2170,-1710,-591,325,3963
2241,11631,2336,2687,-1128,52,-4252,-545,-739,2651
2242,11667,2368,2688,-1480,2538,-3832,366,125,4446
2243,11667,2310,2690,-2120,-1086,-3246,592,24,4830
2244,11679,2406,2690,-1648,122,-2074,17,497,4841
2245,11726,2260,2688,-1842,-2468,-2530,905,335,4620
2246,11726,2308,2689,-2446,876,-1494,-781,468,4493
2247,11810,2312,2689,18,-1524,-5650,-419,-189,4620
2248,11810,2293,2690,-362,-1092,-2322,498,-196,6262
2249,11978,2118,2691,-1454,94,-4776,307,-777,5015
2250,11978,2489,2691,-4466,742,-3638,152,-352,4658
2251,12276,2271,2689,752,-306,-8938,98,-872,5369
2252,12707,2428,2690,-2828,-398,-4240,-400,-367,5546
2253,12707,1894,2689,-116,-1814,-5500,181,-103,3998
2254,13424,2252,2689,-854,-3270,-2796,262,567,3966
2255,13424,2151,2689,-8314,1416,-3048,-526,814,5153
2256,14022,2331,2690,-980,-490,-4604,-523,817,4637
2257,14058,2210,2689,88,-4078,-5722,-568,452,3907
2258,14058,2290,2691,1864,1686,-6334,81,-594,3747
2259,13891,2305,2691,-4730,272,1948,-64,-1447,2934
2260,13891,2364,2691,2456,-690,-9934,33,1230,3701
2261,13508,2290,2690,-4530,1054,2354,-12,-110,3229
2262,13508,2308,2688,52,-916,-6136,-284,636,2321
2263,13137,2295,2690,-2760,2832,-2992,-784,-100,3512
2264,12886,2331,2690,46,-1504,-3428,611,-494,992
2265,12886,2268,2690,-1452,1188,-4062,469,84,2548
2266,12803,2338,2690,470,-606,-6552,-267,300,2996
2267,12803,2350,2688,-870,-334,-4072,304,-8,2993
2268,12827,2516,2688,1178,538,-5158,-500,845,2910
2269,12827,2198,2689,-2276,2782,828,721,27,2598
2270,12970,2348,2689,-454,-318,-8282,475,268,3312
2271,13245,2339,2689,-1856,1694,-5272,-103,-142,1446
2272,13245,2285,2690,-1876,940,-4840,320,-523,4231
2273,13747,2351,2689,-2520,1428,-7056,-245,-24,3350
2274,13747,2329,2689,504,-384,-2706,-55,261,3759
2275,14190,2299,2691,-2100,540,-3490,188,-666,3465
2276,14190,2108,2689,-742,-1148,-4598,-48,1243,3394
2277,14787,2616,2690,-1638,202,-4464,68,138,3256
2278,15074,1952,2690,1366,-1822,-6576,-109,738,2628
2279,15074,2312,2690,-1012,2598,-3924,-432,135,2230
2280,14991,2384,2690,698,-2408,-1764,-241,240,2445
2281,14991,2278,2691,-2508,1290,1270,214,-643,2716
2282,14919,2319,2690,1558,-478,-4854,365,-190,385
2283,14728,2293,2691,-2768,144,480,265,-539,2245
2284,14728,2321,2688,-2050,1464,-2620,-523,-44,1849
2285,14465,2486,2688,-1226,132,-3568,-90,191,2017
2286,14465,2268,2690,-20,-2086,-3854,449,589,2183
2287,14285,2401,2691,-1128,-960,-1162,-90,-676,3494
2288,14285,2302,2690,-2220,1344,-5740,585,551,1853
2289,13891,2347,2688,296,-736,-4434,-520,369,3523
2290,13329,2218,2689,-3320,-386,-6060,-145,-37,1929
2291,13329,2425,2689,2156,2152,-10012,-196,389,3842
2292,12886,2399,2689,-3070,-2438,1468,-258,-319,2318
2293,12886,2214,2688,4,-1754,-3220,52,-186,2640
2294,12587,2387,2690,-1506,634,650,-306,-500,3020
2295,12587,2408,2690,-1758,-28,-7484,417,128,2696
2296,12456,2402,2689,-418,542,-5406,-229,358,1979
2297,12456,2192,2689,-396,-2616,-4348,573,237,2460
2298,12456,2381,2689,-1304,2730,-5334,640,285,4485
2299,12480,2230,2688,-1526,-1972,-2764,-16,-317,3597
2300,12480,2308,2690,-900,24,-2070,178,363,3715
2301,12599,2187,2689,-1946,-924,-4800,240,-351,3680
2302,12599,2521,2689,-648,2796,-6834,259,8,3214
2303,12695,2156,2689,-4198,-508,-2456,-245,-176,3574
2304,12886,2244,2689,-220,-1090,-2916,-48,287,4597
2305,12886,2308,2689,-1246,2274,-4926,175,455,3863
2306,13173,2173,2689,-1558,1904,-3824,298,-421,2713
2307,13173,2544,2689,-3204,-2386,-2406,621,-221,4594
2308,13795,2085,2690,-1452,1688,-5166,175,-82,3612
2309,14405,2217,2688,-2298,-1628,-3026,-251,402,4591
2310,14405,2186,2688,-288,-1268,-1450,275,551,3076
2311,15110,2265,2690,-572,2064,-1782,278,-808,3064
2312,15110,2191,2691,-198,-2316,-5824,485,297,2230
2313,15756,2318,2690,-1364,2194,-2574,443,-545,1950
2314,15756,2266,2688,2922,-526,-8956,-496,-291,2825
2315,16390,2318,2690,-2830,2898,56,-113,48,1734
2316,17000,2311,2690,2748,274,-6488,110,-101,-682
2317,17000,2293,2689,-2580,1950,-1246,533,296,950
2318,16976,2245,2688,1388,-1872,-4640,701,-1072,942
2319,16976,2323,2691,460,-1338,-5408,301,-408,232
2320,17035,2183,2690,216,834,-3226,353,68,370
2321,17035,2274,2688,610,-1754,-3050,-1110,-84,3707
2322,17035,2233,2689,-426,1942,-1332,49,325,438
2323,17047,2318,2690,538,-1610,-5234,650,-56,588
2324,17047,2281,2690,-2436,908,-2378,159,-313,1019
2325,17035,2466,2691,1108,906,-6676,-57,-548,81
2326,17035,2135,2690,-2922,1140,-504,-42,-618,535
2327,17035,2285,2689,1614,938,-6494,181,103,588
2328,17035,2420,2689,-1132,-32,458,333,-577,-750
2329,17047,2292,2690,194,-1006,-6762,178,360,1039
2330,17107,2371,2689,-768,1178,-5052,-1155,325,1328
2331,17107,2381,2688,-572,1058,-3316,-271,-291,1169
2332,17143,2531,2689,-1282,1924,-3148,-193,-774,-204
2333,17143,2320,2690,-790,-328,-3302,78,-456,-484
2334,17155,2259,2690,-1582,1230,-4990,433,-50,-173
2335,17275,2457,2690,-292,-1674,-5288,30,100,-113
2336,17275,2174,2689,26,-506,-5160,-51,20,237
2337,17370,2280,2690,-2314,1342,-5508,-416,1100,768
2338,17370,2444,2691,496,1386,-1604,175,-240,-2577
2339,17370,2505,2690,258,-1332,-3678,682,-462,-1156
2340,17358,2246,2691,-504,-558,-998,207,182,659
2341,17358,2254,2691,-104,-1754,-3402,291,341,-117
2342,17466,2421,2690,-166,-56,-3214,-365,287,107
2343,17466,2143,2688,1684,1024,-6538,-361,487,155
2344,17561,2229,2690,480,-196,-3566,562,-319,-378
2345,17561,2289,2690,-878,454,-4240,763,138,-331
2346,17848,2225,2690,-100,-2028,-3462,391,423,1846
2347,17848,2301,2688,-290,-28,-1128,-277,1068,-705
2348,17968,2259,2689,1218,1008,-4166,-503,-237,2946
2349,18147,2105,2688,476,538,-5340,-474,792,291
2350,18147,2325,2691,-1642,912,-2788,375,360,-564
2351,18171,2019,2689,2636,-1334,-7606,420,-107,-641
2352,18171,2450,2689,852,230,-1520,114,598,-1781
2353,18195,2244,2689,-664,-18,-4752,-67,424,-782
2354,18195,2286,2689,-42,370,-2868,-144,-166,-1286
2355,18135,2661,2691,268,78,-4398,145,395,-2672
2356,17968,2382,2692,1362,-1122,-5326,414,-151,-1304
2357,17968,2029,2690,4,1116,-4980,395,36,-2135
2358,17777,2446,2691,1588,994,-4000,411,-497,-1283
2359,17777,2134,2690,-892,206,-3014,14,128,-1165
2360,17394,2373,2689,2492,-342,-6988,-445,-411,-1103
2361,17394,2282,2689,-96,1226,-1206,798,-272,-1625
2362,17143,2405,2690,3014,-440,-5100,631,196,-1887
2363,17131,2343,2691,-1028,592,-4894,611,-656,-1233
2364,17131,2269,2688,-140,532,-6092,-235,65,-1569
2365,17119,2251,2688,-704,-408,-1396,-316,173,-1410
2366,17119,2245,2688,1940,514,-6716,120,75,-632
2367,17047,2301,2690,1526,-1780,-3914,220,-183,-906
2368,17035,2312,2690,644,666,-4128,275,-79,-1640
2369,17035,2340,2689,354,-854,-1812,417,-943,-1030
2370,17047,2312,2691,1538,128,-9130,-187,-189,-411
2371,17047,2516,2689,-868,-1826,-26,-6,176,-1443
2372,17000,2083,2689,-580,-196,-3652,4,106,-868
2373,17000,2285,2688,660,14,-5600,-145,297,-1165
2374,16964,2221,2689,-608,890,-3722,539,973,-1319
2375,16904,2271,2689,668,-2012,-3720,246,941,-553
2376,16904,2236,2690,758,3096,-5950,1063,205,-2032
2377,16736,2250,2690,1076,-2018,-3034,559,-930,-871
2378,16736,2276,2689,228,-508,-7284,-319,-1218,1081
2379,16318,2228,2690,862,-550,-2904,62,-1409,-741
2380,16318,2266,2691,536,-482,-6394,211,-259,-997
2381,15756,2298,2688,-1954,-706,-1398,314,135,-1077
2382,15074,2226,2688,-1170,108,-6050,382,-1078,-464
2383,15074,2113,2690,-4268,1072,-4468,-416,386,966
2384,14453,2320,2688,-2782,568,-2600,-442,1279,1240
2385,14453,2130,2689,-1744,-766,-5316,-1537,-835,3237
2386,13939,2288,2689,-1712,1152,-3414,-536,457,2017
2387,13939,2279,2690,910,4,-464,188,-129,4697
2388,13652,2117,2690,-1864,-1236,-1964,508,-342,2012
2389,13305,2264,2690,-432,-1530,-3896,914,1100,1520
2390,13305,2351,2690,-1016,-570,-4716,-67,147,2118
2391,13078,2214,2689,-3330,86,-6486,-132,462,3430
2392,13078,2155,2689,-624,-2364,-6212,-691,261,3167
2393,12910,2279,2688,262,606,-6664,-154,-1628,2616
2394,12910,2268,2689,-2850,-1354,-3004,39,-1355,3135
2395,12779,2206,2689,-1740,122,-2624,249,-913,3509
2396,12492,2159,2689,-2270,686,-5268,478,-399,2854
2397,12492,2310,2688,-1124,-1434,-4822,233,960,3919
2398,12241,2230,2687,-1232,-1184,-4634,-74,1091,3185
2399,12241,2377,2688,-498,-2838,-7504,559,767,3397
2400,12145,2544,2691,-1124,0,-4864,401,90,3515
2401,12085,1946,2691,-3090,-2588,-5812,226,26,3845
2402,12085,2474,2691,-1018,-370,-2600,-135,198,1118
2403,12109,2167,2686,-1178,-1942,-2168,-419,-1009,3273
2404,12109,2077,2687,-694,-1856,-3164,-752,770,4608
2405,12133,2479,2689,-2298,704,92,-112,163,3654
2406,12133,2079,2690,-2502,-1548,-4050,74,-616,3143
2407,12241,2289,2690,-3676,854,-2962,608,217,4564
2408,12265,2215,2690,-1032,-1286,-3914,26,-583,3685
2409,12265,2246,2689,-1006,-1526,-6360,-584,421,5048
2410,12372,2220,2687,-1086,-1374,-3152,-506,795,3615
2411,12372,2560,2689,-680,1120,-5080,246,-487,3041
2412,12432,2182,2690,-3336,1364,-3952,604,-196,3562
2413,12432,2218,2690,-2004,-1822,-5304,717,188,3615
