index,servo,motor,gimbal,acc_x,acc_y,acc_z,gyro_x,gyro_y,gyro_z
0,0,0,0,-6,-30,-3920,14,49,-39
1,17047,0,2689,0,-64,-3946,20,7,-43
2,17035,0,2689,-56,-42,-3996,-55,-44,7
3,17035,-1,2691,-4,86,-4064,20,-250,-158
4,17035,0,2690,-36,-58,-3916,7,110,-81
5,17035,0,2691,6,56,-4036,-148,83,57
6,17035,-1,2689,-34,-56,-3864,56,39,-84
7,17047,0,2690,-44,-16,-3926,-9,-103,-28
8,17047,0,2691,-16,-2,-3946,0,109,-234
9,17035,0,2690,-14,2,-3856,13,-35,-7
10,17035,0,2691,16,52,-3966,20,-75,-84
11,17035,0,2689,12,48,-4000,-67,14,114
12,17047,0,2689,-6,14,-3888,49,-49,31
13,17047,0,2692,8,-130,-3880,65,-81,152
14,17047,-1,2689,-50,-76,-3898,-55,-66,60
15,17047,0,2691,-38,-50,-3956,130,52,-42
16,17047,0,2688,18,16,-4034,-3,154,58
17,17035,0,2691,-42,-92,-3822,-35,-215,443
18,17035,0,2690,-32,-16,-3940,114,78,-148
19,17035,0,2690,-24,-48,-3934,14,-15,-266
20,17035,0,2691,-28,40,-3924,-45,90,123
21,17035,0,2689,-26,32,-3924,-61,-15,84
22,17035,0,2691,-32,-136,-3946,-13,-193,-119
23,17047,0,2690,-52,96,-3980,-9,271,-311
24,17047,1,2689,-38,8,-3944,68,141,-154
25,17047,0,2688,-54,-186,-3832,39,220,-4
26,17035,0,2689,-26,2,-3906,29,45,-282
27,17035,0,2690,2,158,-4014,22,51,69
28,17047,0,2690,-16,-72,-3900,-110,-460,-28
29,17035,0,2690,-22,-262,-3902,-16,122,219
30,17035,0,2691,-58,118,-3966,4,-459,388
31,17047,0,2689,-38,28,-3928,88,-34,-87
32,17047,0,2690,-24,-224,-3944,-28,119,70
33,17035,-1,2689,-102,130,-3928,-35,141,-104
34,17035,0,2689,8,42,-3980,-116,39,114
35,17047,1,2690,2,-24,-3942,-12,55,-25
36,17047,0,2690,2,56,-3976,23,-104,102
37,17047,0,2692,-68,72,-3972,136,-278,31
38,17047,0,2690,-44,-66,-3892,214,-221,-45
39,17047,1,2690,-26,8,-3986,-29,118,-117
40,17035,0,2690,-98,162,-3988,-77,-491,155
41,17035,0,2689,-22,-36,-3964,-174,87,220
42,17047,0,2691,-32,92,-3982,-55,106,128
43,17047,0,2689,10,8,-3912,55,194,116
44,17047,0,2690,-8,-66,-3898,45,-371,261
45,17047,0,2691,-52,-54,-3926,-58,-50,-72
46,17047,0,2690,-44,-6,-3866,16,64,-173
47,17035,1,2690,-18,64,-4020,7,-263,-69
48,17035,0,2690,-18,-68,-3924,-103,404,190
49,17035,0,2691,-8,-4,-4004,-42,185,-19
50,17047,0,2690,-4,86,-4038,10,48,275
51,17047,0,2690,-100,152,-3866,91,-9,75
52,17035,0,2690,10,-84,-3888,65,0,143
53,17035,0,2691,-92,88,-3970,-90,230,-137
54,17035,0,2691,-36,66,-4064,84,-336,193
55,17035,-1,2689,-58,-84,-3814,-9,77,-63
56,17035,1,2690,-14,10,-3992,49,-161,223
57,17035,0,2690,-52,28,-3924,94,-250,96
58,17035,0,2690,38,-168,-3922,-32,-161,31
59,17035,0,2689,-26,14,-4000,-39,134,-408
60,17035,0,2691,-44,32,-3904,0,264,-458
61,17047,1,2690,16,4,-3984,91,-107,-96
62,17035,0,2688,-14,-36,-3978,139,80,116
63,17035,0,2690,-22,186,-4004,104,-21,28
64,17035,0,2690,-42,-74,-3922,13,58,-173
65,17035,0,2690,-10,-6,-3954,-15,-129,25
66,17047,0,2689,-80,-62,-3986,-28,163,23
67,17047,0,2691,-42,76,-3928,-84,55,-40
68,17035,1,2690,32,-76,-3900,-113,137,81
69,17047,0,2690,0,16,-4028,55,230,228
70,17047,-1,2690,2,138,-3986,71,106,134
71,17047,0,2690,46,-108,-3926,149,-171,10
72,17047,0,2690,-24,-60,-3918,94,240,-95
73,17035,0,2689,-2,12,-4084,56,119,-187
74,17035,0,2689,-48,84,-3930,65,1,-87
75,17035,-1,2690,-54,-198,-3916,117,-707,61
76,17035,0,2690,-30,64,-4026,-104,293,49
77,17035,0,2689,-14,-8,-3934,-71,14,-99
78,17035,0,2690,-50,-10,-3894,-68,-101,-175
79,17035,0,2690,14,-96,-3882,32,179,-264
80,17035,0,2690,-48,42,-4040,-25,211,-128
81,17035,0,2689,-28,-116,-3886,-6,52,-46
82,17047,0,2690,-26,-70,-3888,-9,-237,214
83,17047,0,2690,4,-54,-3966,52,33,31
84,17047,0,2689,-36,-144,-3866,71,-197,-43
85,17035,1,2690,-4,76,-3986,74,109,-117
86,17035,-1,2688,-52,20,-3866,-9,99,-58
87,17047,0,2690,-10,-66,-3972,-54,97,249
88,17035,0,2690,-72,80,-3974,-48,150,370
89,17035,-1,2689,-24,-24,-3964,-93,-72,75
90,17035,-1,2690,-44,154,-3838,10,83,107
91,17035,0,2690,-24,-96,-3936,127,-278,-69
92,17035,0,2691,-8,-18,-3956,-9,84,70
93,17035,-1,2691,-26,-8,-3900,46,100,-16
94,17047,-1,2690,46,-16,-3946,104,-358,-4
95,17035,0,2689,150,-678,-4022,10,188,865
96,17035,198,2690,398,-280,-3806,88,-300,-36
97,17035,454,2691,2896,8762,-1154,-855,-135,-187
98,17035,1317,2689,2214,6714,-5322,-1239,640,-387
99,17047,830,2689,1338,4852,-6658,-1191,-1670,-170
100,17047,1578,2691,-3918,2122,4004,937,-605,-2963
101,17035,2349,2689,2362,3594,-8234,982,-1110,-2259
102,17047,2859,2684,416,2320,-3212,-348,-595,164
103,17047,2926,2689,188,3360,-902,-142,417,-167
104,17035,2887,2690,-60,2772,-3326,-319,-1130,-2613
105,17035,2992,2685,698,6020,524,-535,395,-249
106,17047,2910,2685,3890,1064,-2564,-93,-688,191
107,17047,2952,2688,464,662,-2392,601,-1028,-1607
108,17035,3232,2688,-180,1586,-7838,-142,-704,-302
109,17035,3401,2689,246,6296,-11308,-416,-145,-892
110,17035,3731,2687,1306,4484,-4646,-872,-123,337
111,17047,2944,2687,830,6420,-8940,-461,-46,1685
112,17047,3114,2688,0,5056,-824,-129,271,4057
113,17047,3057,2686,-3572,5130,-3466,-916,1014,2404
114,17047,3170,2687,-1792,4636,-4712,795,357,2183
115,17035,3381,2688,-214,2608,2856,313,-37,-1292
116,17035,3501,2687,1742,-208,-4368,678,562,-2259
117,17035,3464,2688,1156,3164,-10434,68,539,497
118,17035,3371,2686,1482,3446,-9876,-1492,118,1929
119,17035,3266,2687,2330,1872,-4574,-461,503,904
120,17035,3460,2688,1456,2334,-4154,501,-406,806
121,17035,3017,2687,1492,684,-5486,-500,302,491
122,17035,3429,2687,498,4448,-5398,468,-21,-2200
123,17035,3595,2689,-678,1476,-198,536,-628,-22
124,17035,3498,2686,2132,3918,-130,-109,-72,2171
125,17035,3287,2687,-1834,5738,-3838,116,-1016,-1528
126,17035,3054,2688,3278,-12,-5884,84,465,-827
127,17035,3140,2686,1088,720,-6828,240,-1520,273
128,17047,3309,2687,822,2432,-9270,-77,700,-249
129,17047,3418,2687,-348,3238,-1148,78,90,-2188
130,17035,3479,2687,456,506,-2838,-100,-641,-1089
131,17035,3801,2687,798,3972,-10952,882,1150,-11349
132,17047,3242,2689,-718,5406,-818,465,-888,-1749
133,17047,3512,2688,1122,-1210,-2026,462,1183,851
134,17035,3540,2687,3084,3202,-8508,-549,33,1248
135,17035,3558,2688,-1490,3134,-2470,-100,-15,-550
136,17035,3663,2686,-1248,6954,-4570,-1098,484,1967
137,17047,3811,2689,-254,1988,-7438,-432,-831,-1295
138,17047,3888,2688,2840,102,-6398,-400,-234,-1168
139,17035,3752,2688,-60,988,-1748,32,-402,-694
140,17035,3798,2688,-2606,2548,-5022,233,751,-51
141,17047,3847,2686,-566,4412,-7052,-209,-732,-313
142,17047,3473,2687,-1732,1864,-4956,-61,830,-1478
143,17047,3948,2689,-1112,588,-1108,-704,499,-576
144,17035,3964,2688,-1090,2454,-5362,-61,-847,-214
145,17035,4014,2689,656,4042,-7110,330,61,676
146,17047,4073,2689,-288,-1000,-5146,1909,-176,-325
147,17035,4025,2686,1814,-634,-1570,-80,-939,1652
148,17035,4115,2686,676,-1306,-2664,-84,566,-40
149,17047,4030,2686,300,628,-2488,-3,245,-2259
150,17047,4157,2688,1962,646,-3216,617,306,-650
151,17035,4117,2690,3706,-2266,-1118,572,-1422,1257
152,17035,4138,2688,-420,-2688,-8242,246,236,84
153,17035,4214,2690,844,2732,-5120,307,1040,-3049
154,17035,4643,2686,-1460,-2584,-4106,-1656,614,1652
155,17035,3803,2687,792,2158,-1070,-500,864,482
156,17047,4719,2688,-1284,4108,-4538,-312,-573,-2427
157,17047,4044,2689,1262,-2300,-196,1150,658,373
158,17035,4326,2691,1412,1792,-5672,1463,-494,-682
159,17035,4386,2688,850,-822,-8502,-57,271,-1699
160,17035,4284,2689,1008,4256,-5266,-652,-1041,-2722
161,17035,4375,2687,-432,-1094,-2572,-652,-850,455
162,17035,4300,2686,2008,1592,-70,26,1538,290
163,17047,4277,2688,4294,2504,-1248,-545,1484,-1669
164,17047,4429,2690,82,-892,-3812,320,230,-1195
165,17047,4443,2689,2188,-1408,-840,-91,642,-3406
166,17047,4453,2690,-434,2028,-2356,311,-259,-1881
167,17035,4493,2690,548,-2296,-2544,-119,427,-479
168,17047,4422,2686,-878,-2634,-1646,988,-628,-3798
169,17047,4826,2690,1776,-958,-776,314,-2765,-661
170,17047,4040,2690,-1000,898,-7562,-429,-796,2472
171,17047,4479,2688,784,2732,-8754,-1382,80,1723
172,17047,4578,2687,-102,1320,-3214,-952,233,-399
173,17047,4552,2689,1768,1162,-5392,-26,141,455
174,17035,4585,2689,686,328,-1040,475,42,-2698
175,17047,4586,2689,1840,2118,-5020,976,-796,-1457
176,17047,4505,2689,-1794,38,-3784,265,1094,-2922
177,17047,4493,2688,-754,4264,-11344,-945,446,-2536
178,17047,4657,2687,-318,-1250,-5540,-177,868,1638
179,17047,4671,2687,90,868,-3190,-83,1288,-1825
180,16988,4628,2688,-298,162,-5510,159,827,-776
181,16988,4472,2687,-248,-18,-2030,1069,-878,-3544
182,16976,4615,2688,3162,1922,-5424,55,1782,-762
183,16976,4182,2689,490,-832,-6068,-835,-605,-1201
184,16904,4651,2689,1348,386,-4344,104,1421,208
185,16904,4751,2688,2998,-2584,-6214,-303,-409,-2430
186,16641,4511,2689,-2044,-584,138,655,169,812
187,15971,4590,2690,2604,-116,532,724,1158,-2156
188,15971,4819,2688,-196,-1720,-10302,623,-139,-1679
189,15708,4637,2687,-372,-326,-4384,411,-697,-2515
190,15708,4716,2687,1120,262,-3172,-106,350,517
191,15397,4774,2688,2536,2688,440,198,884,1355
192,15397,4788,2690,-2708,260,2040,1321,-1095,-635
193,15302,4563,2690,-814,728,-2414,663,922,3866
194,15337,5064,2687,-2414,4168,-6366,-226,-1174,-358
195,15337,4466,2687,-1502,-532,-3094,126,1738,-317
196,15720,4551,2686,770,-702,3488,207,649,-5200
197,15720,4565,2689,1432,-710,-1846,934,459,-2070
198,16294,4688,2689,-1228,-3838,-3222,1069,-1224,2985
199,16294,4844,2690,-440,-1200,-7192,1033,315,2963
200,16976,4589,2689,-2492,2338,-9554,-413,-1130,4746
201,16988,4863,2686,-2708,3534,-3028,-265,677,2866
202,16988,4816,2687,-1128,-2474,-3114,255,915,2589
203,16988,4759,2689,918,-1850,3724,-181,903,-1287
204,16988,4581,2690,2382,436,-6950,1359,-1152,809
205,16988,4574,2691,246,-2198,-5096,-509,-1158,2339
206,17000,4695,2689,-518,-3210,-2552,1663,1513,-2418
207,17000,5091,2688,1092,-398,-6734,727,153,-1487
208,16988,4217,2688,906,1602,-2698,88,-459,-172
209,16988,5063,2691,-762,308,-3548,1685,366,-2200
210,16988,4725,2690,170,-1308,-5586,1221,385,-5781
211,16988,4606,2688,-1344,856,-7094,814,1951,-8766
212,17000,4574,2688,1360,-946,-3002,481,2382,-2902
213,17000,4970,2687,882,3064,-9274,-345,-914,-467
214,17000,4867,2688,1196,-808,-3522,-394,630,-847
215,17000,4906,2691,-228,286,-5920,801,-679,835
216,17000,4664,2688,-848,-2116,-8268,-1513,1834,-4195
217,16976,4610,2688,670,-2988,-150,398,-1101,-1896
218,16976,4686,2689,250,-1784,-200,698,588,-3692
219,16892,4836,2688,-180,1534,-6988,194,121,715
220,16402,4554,2689,362,1858,-3690,255,1938,2132
221,16402,3760,2688,248,-1058,-3902,-513,1674,-2766
222,15517,3805,2687,3206,-2120,-6046,430,-1225,2604
223,15517,4092,2690,-2772,-2536,-7374,710,350,-2017
224,14907,2528,2691,-1604,-6204,-5394,-232,684,1263
225,14907,2426,2688,-104,-4278,-1326,-1101,-1162,5044
226,13783,2526,2686,1594,-6126,-6840,-1029,2437,353
227,12683,2120,2688,2504,-7416,-3264,1718,-1409,771
228,12683,2167,2690,1786,-2980,-1388,1669,-88,-727
229,11738,2143,2692,2042,-5232,-5032,882,1504,-1050
230,11738,1780,2687,-1538,-3644,-2896,130,868,1169
231,11308,1505,2686,-532,-3550,-3636,-1333,156,1787
232,11308,963,2689,-2546,-1316,-5378,-1268,-1155,1163
233,10997,841,2688,-1342,-6164,-5536,-336,-368,1687
234,10758,1073,2689,-548,-6300,-6814,1118,-1637,918
235,10758,1616,2689,-2834,-2432,-10108,207,-691,2224
236,10531,1656,2688,-1096,-3428,-2470,-393,125,2153
237,10531,1434,2687,1536,-2306,-5904,-752,-348,2498
238,10500,1132,2689,872,-4632,-2692,-661,360,2077
239,10500,834,2689,-166,-3250,-1394,-68,-676,2342
240,10500,836,2691,-170,-3706,-3632,-29,-348,2256
241,10500,866,2689,-3278,-1142,-5776,-203,-1498,2681
242,10500,1060,2689,-3452,-2466,-1784,-135,-157,2654
243,10500,1076,2689,-1516,-4462,-4396,201,310,2177
244,10500,1003,2689,-558,-3630,-5414,-148,-282,2265
245,10626,888,2691,-1474,-1474,-2244,36,-129,1911
246,10854,1137,2690,-2008,-2224,-3236,-509,399,1679
247,10854,1100,2689,-3488,-3250,-4684,-174,128,2050
248,11296,1394,2689,-1956,-1176,-5524,466,179,2398
249,11296,1519,2689,-2536,-2734,-4016,-42,-507,3220
250,11392,1626,2688,-2734,-452,-4522,100,668,3323
251,11392,2038,2689,-1876,230,-6046,-216,357,5360
252,11105,2067,2689,-2500,118,-2106,265,-1362,3052
253,10973,2876,2689,-2834,-344,-3236,-694,906,3562
254,10973,2851,2689,-6446,-1570,716,872,-586,1785
255,11033,2622,2689,-3016,-874,-1890,-691,-368,3591
256,11033,2703,2688,314,3298,-3290,-787,-967,6742
257,11320,2932,2687,-3852,-838,-5468,427,-735,5431
258,11320,2936,2688,-3342,4852,-4550,-196,81,5708
259,11738,2871,2686,-2862,602,-2702,258,385,5728
260,12480,3109,2686,-1510,3690,-12242,181,1141,5315
261,12480,3678,2686,636,2930,-6972,194,773,5861
262,13305,3193,2689,-8476,3426,204,691,-25,5404
263,13305,3371,2685,240,2140,-146,-529,614,6046
264,14070,3367,2686,-674,682,-4342,-917,-348,5802
265,14453,3445,2690,190,-1598,-5882,156,903,5251
266,14453,3360,2689,-4084,6500,-7276,282,-523,3636
267,14907,3824,2688,-3396,3996,320,165,-542,4296
268,14907,3111,2687,-4832,2028,2444,972,-345,4322
269,15218,3351,2689,-1722,2190,-4448,162,268,4859
270,15218,3458,2687,-2842,944,-6372,-791,-66,4319
271,15768,3604,2687,-3200,2090,-1272,342,391,3432
272,16186,3629,2689,-1624,6020,-5112,-2140,-84,5331
273,16186,3752,2688,-1238,136,-1152,-54,-236,5787
274,16461,3531,2689,-346,1528,-9346,633,-872,2669
275,16461,3530,2688,-3340,1278,-2246,1020,-1495,2845
276,16617,3471,2687,-4792,1846,-8402,969,1469,3400
277,16617,3601,2688,-1690,580,-2764,45,773,3323
278,16964,3634,2683,-2100,4162,-5542,-1216,706,1929
279,16988,3281,2689,-158,-960,-5172,-258,1145,1260
280,16988,3735,2689,-652,-2082,-2418,898,935,-1743
281,16988,3212,2690,474,150,-3900,750,109,556
282,16988,2963,2692,-1364,-778,-3310,863,-18,615
283,17000,3130,2689,-1158,570,-6134,59,821,-187
284,17000,2954,2688,-1408,530,350,-84,-730,-1263
285,17000,2505,2688,176,-2020,-2738,-823,337,482
286,17000,2670,2688,230,-2764,-4752,-1016,-589,161
287,17000,2870,2690,-452,-4428,-6002,1311,442,-2324
288,17000,2648,2691,1108,-2144,-6566,562,-1127,-986
289,17000,2504,2689,-1080,-1700,-4786,482,-259,-570
290,17000,2541,2689,454,-2828,-7488,142,-53,497
291,16964,2105,2689,1774,-3958,-2984,346,-885,-830
292,16964,2248,2689,982,-1372,-3166,-167,938,-101
293,16988,2320,2690,-1170,-5992,-892,-759,131,514
294,16988,2260,2690,842,-744,-5548,553,852,833
295,17047,2310,2691,806,-3440,-5434,356,-18,1387
296,17047,2430,2689,1130,-3072,-5874,52,176,291
297,17047,2314,2687,-538,-808,-4480,-119,52,429
298,17035,2305,2689,-452,-2404,-518,-493,519,211
299,17035,2395,2690,-362,-564,-4684,46,33,132
300,17047,2075,2690,138,80,-2450,271,496,-276
301,17047,2235,2690,100,-1458,-5116,543,-425,-921
302,17047,2305,2690,2216,-1122,-5314,249,369,43
303,17047,2315,2688,406,826,-3682,-203,-688,296
304,17035,2503,2689,-60,-1466,-3824,-83,116,-1377
305,17035,2690,2690,-1584,324,-3006,-700,113,-461
306,17035,2467,2689,-156,496,-876,43,-129,414
307,17035,2379,2688,156,1506,-4906,882,224,-1401
308,17035,2609,2689,-394,1256,-4310,-86,-107,942
309,17023,2914,2688,-2734,-148,-1864,-152,1,2353
310,17023,2426,2689,2162,1340,-7786,-74,-107,-322
311,17000,2370,2689,-234,3110,-3556,-671,5,438
312,16976,2393,2690,-302,530,-4792,123,-437,-650
313,16976,2445,2689,560,920,-1900,145,255,-777
314,16964,2518,2689,1712,150,-2346,-771,-685,-157
315,16964,2584,2689,38,-1804,-3904,-229,64,809
316,16976,2649,2688,164,2526,-9190,-58,369,329
317,16976,2880,2689,398,1848,-2194,-1527,592,511
318,16988,2942,2688,-924,-640,-2088,472,-98,-585
319,17000,2984,2687,-72,2010,-6122,-1752,-189,-1089
320,17000,3099,2689,1368,1474,-3780,-604,-435,794
321,17000,3256,2686,1656,-548,-7520,424,570,64
322,17000,3465,2689,1648,3548,-5766,756,697,232
323,16988,3438,2689,-96,1816,-6422,172,446,-985
324,16964,3310,2689,1844,2192,-5078,-981,830,909
325,16964,3321,2687,-1394,3598,-1900,-513,925,-2872
326,16964,3390,2687,-160,1988,2540,330,935,-971
327,16964,3713,2688,-1472,2016,-5260,304,372,-1381
328,17000,3196,2688,-1656,4178,-2784,610,39,-2480
329,17000,3716,2687,-454,2728,-4276,-13,-470,-735
330,17047,3732,2688,-1314,-108,2596,517,-564,-1478
331,17047,3482,2687,-1714,-1334,-3406,407,343,-1802
332,17047,3673,2688,-514,3966,-4680,-416,-129,-1183
333,17047,3569,2687,-418,4020,-1420,-248,176,-950
334,17047,3634,2688,388,-72,-2960,-122,637,901
335,16988,3663,2689,908,1496,-3504,-42,-730,491
336,16988,4045,2687,1656,-1168,-3994,356,-904,3032
337,16988,3455,2689,-824,1798,-5148,98,-250,-1380
338,16964,3618,2689,-260,16,-5092,262,-1393,1
339,16964,3665,2687,-870,-414,-3418,-39,1125,-1581
340,16976,3629,2686,828,-584,-2924,-745,-119,2318
341,16976,3763,2688,1302,-1258,-1894,58,-114,-111
342,16976,3364,2689,1312,750,-9908,-342,87,556
343,16976,3911,2689,1648,650,-4960,517,-409,-43
344,16976,3383,2689,112,-20,-2870,26,-250,1510
345,16964,3725,2690,504,-2046,-1880,359,703,-2200
346,16964,3308,2688,-1272,700,-2950,-590,1364,-741
347,16976,3295,2688,1060,1396,-1850,501,683,-2121
348,16976,3431,2690,674,436,-3716,410,-815,1289
349,16988,3435,2690,1376,-188,-748,249,-1235,-768
350,16964,3641,2690,1188,1334,-5876,481,207,331
351,16964,3438,2689,160,-844,-6400,36,-285,-1210
352,16976,3167,2688,722,-1668,-1798,385,-100,-1127
353,16976,3305,2688,-578,-48,-7600,-458,30,-894
354,16976,3484,2690,-552,292,-1578,-281,137,-818
355,16976,3399,2690,1836,642,-4716,-423,90,-956
356,16964,3462,2689,-168,-542,-2998,-39,19,-553
357,16964,3642,2689,324,-1070,-2274,601,-30,-172
358,16964,3008,2690,36,-4,-4758,242,-1260,352
359,16964,3451,2689,-626,-190,-5154,-294,232,152
360,16964,3419,2690,3168,14,-3368,191,-364,-1451
361,16976,3690,2687,-1322,-392,-2634,-887,1926,-1003
362,16976,3831,2689,2768,810,-1870,-283,252,2295
363,16976,3425,2689,-118,856,-3438,158,68,597
364,16892,3754,2689,1480,-922,-3028,775,-955,-1944
365,16892,3021,2691,-522,88,-7692,959,-1352,-4470
366,16677,3571,2691,-1290,738,-2606,-452,-520,1911
367,16677,3523,2688,-254,-382,-4772,104,1290,-4072
368,15959,3761,2687,-1110,442,0,-858,1278,211
369,15959,3515,2690,1758,1462,-3008,-206,595,665
370,15218,3512,2689,-2178,1022,-3952,-51,49,-134
371,15003,3589,2689,-2158,382,-4142,317,-742,429
372,15003,3567,2688,-1812,-328,-4776,-87,-536,1101
373,14931,3779,2689,-2170,-1568,-2326,-516,-243,2206
374,14931,3490,2687,-3600,-2058,1088,165,347,1611
375,14931,3662,2688,1312,2064,-8692,-216,-730,31
376,14931,3613,2688,-314,268,-2072,62,1087,2153
377,14919,3621,2690,-754,3392,-5292,-345,-294,1546
378,14931,3706,2689,-1608,-708,-3526,-465,77,96
379,14931,3701,2689,-1468,3392,-1058,-51,451,1926
380,14536,3714,2689,-2546,1418,-6316,-106,-1701,2062
381,14536,4063,2688,-2190,-1364,-3192,-468,1004,2120
382,13950,3873,2688,362,-380,-1506,-122,-1713,1732
383,13652,3473,2687,-2398,-480,-1988,252,-34,2804
384,13652,3842,2686,-24,3138,-4998,-155,160,2943
385,13520,3969,2686,-3950,572,-4188,294,17,87
386,13520,4075,2686,-1418,-1886,-1708,187,477,2601
387,13520,4042,2687,-3506,-4112,174,-193,-307,3323
388,13520,3908,2688,-2082,-2266,-1004,1734,-34,-48
389,13640,4051,2687,-1306,-3058,-2466,-225,-640,3020
390,13771,3930,2686,-3686,-954,1332,424,843,5416
391,13771,3936,2688,-1452,410,174,330,560,904
392,13891,4137,2691,-5354,2284,-4554,-1107,-387,5348
393,13891,4105,2690,-1720,1402,-3808,-1084,-764,4499
394,13795,4091,2688,-4462,2636,-7372,113,-126,3134
395,13795,3911,2689,-1606,-2108,-4036,-407,-50,4163
396,13771,4016,2688,-1966,1432,-6518,-64,-402,3727
397,13783,3925,2687,-2332,-1594,792,-471,563,5870
398,13783,4124,2689,146,-1002,-1670,-2447,445,10125
399,13903,4063,2690,-4370,1420,-3728,-274,-1790,5342
400,13903,4097,2690,-4808,-328,-7564,-158,662,3851
401,14453,3916,2689,-3690,4360,-3352,-435,-935,3244
402,14453,4016,2687,-7434,-846,-6286,-194,1316,3394
403,15230,3924,2689,-3814,-1008,5606,-126,1080,3924
404,16318,3642,2689,-1804,-340,-4286,1195,236,93
405,16318,4122,2689,492,740,-6302,1624,58,4587
406,17000,3791,2691,-4580,1268,-5984,847,-668,4308
407,17000,3990,2689,-12514,2758,-6156,520,-615,5766
408,17000,4003,2686,2860,-2228,-2100,-484,2491,7228
409,17000,3908,2687,980,-1496,-6506,94,-2356,1743
410,17000,3883,2693,-3054,-672,310,549,674,-615
411,16988,3895,2693,2480,-606,1068,1408,166,803
412,16988,3907,2689,-118,-2454,-3486,752,-1495,2064
413,17000,3790,2690,2118,-860,-808,223,2640,-1705
414,17000,3851,2691,-358,-60,-7800,-639,-691,3055
415,16964,3728,2689,-2448,584,-7684,-448,-345,1850
416,16976,3831,2689,-578,706,-3228,633,150,-715
417,16976,3907,2691,-852,-318,-4450,330,-1552,426
418,16976,3937,2689,-1694,-2426,-4254,956,382,-685
419,16976,3949,2688,-106,-1464,-2466,-86,36,-31
420,16964,3784,2689,-2718,40,-5736,-190,834,-257
421,16964,3877,2690,794,204,-2888,479,503,-588
422,16904,3901,2689,1244,914,-13414,650,-173,-5115
423,16748,3819,2690,-662,-898,-624,627,-338,2156
424,16748,3825,2691,908,-784,-2674,226,-975,-1794
425,15864,3928,2690,1960,-2588,-2922,149,484,-1177
426,15864,3766,2689,-2598,1882,-246,85,554,435
427,14919,3953,2690,-1276,-1424,-6494,142,1709,644
428,14919,3599,2688,-3332,-138,-1660,-332,436,3824
429,14058,4017,2688,-2370,-846,-8278,146,-1475,-644
430,13652,3262,2689,-4846,72,-1892,342,712,-2575
431,13652,3790,2688,-902,-1686,-1270,52,-1133,4251
432,13496,3553,2685,-3230,-2634,-5710,314,1078,1381
433,13496,3658,2688,-444,-22,-4952,1314,-742,1272
434,13496,3653,2687,-3450,-2636,-3262,20,1783,5882
435,13532,3551,2689,-444,368,-2290,-542,1316,5457
436,13532,3683,2688,-1700,-384,-3184,-323,-216,3249
437,13711,3666,2690,-2024,122,-2780,80,-16,3223
438,13711,3974,2690,-3146,-2766,-6136,705,640,-302
439,13974,3985,2690,-2326,-1626,-2510,-164,3069,5115
440,13974,3149,2689,-2744,1412,-4734,-277,859,5496
441,14453,3637,2688,-3344,-918,-1342,-235,-453,5448
442,15134,3564,2689,-4414,-534,-6150,-35,337,5925
443,15134,3802,2689,-4714,-536,-3888,-10,-721,1560
444,15589,3861,2689,-2278,-2308,-4926,253,398,4992
445,15589,3644,2689,-1518,1234,-4318,-587,551,7037
446,15971,3541,2691,-3676,-92,-2246,488,116,3936
447,15971,3677,2690,-2810,-652,-3678,243,1418,3182
448,16270,3865,2689,-1608,-348,-1328,-439,-2009,3019
449,16402,3282,2690,-1126,-414,-4070,-943,1880,2032
450,16402,3601,2688,348,-722,-2084,-1074,-716,4152
451,16748,3729,2689,-2824,362,-6474,-126,-1123,3049
452,16748,3765,2691,-1478,1098,-7270,840,557,2026
453,16964,3683,2692,-1066,2126,-7082,-132,-377,1811
454,16964,3488,2688,-1486,-2322,-2384,-119,1374,2195
455,16988,3385,2689,256,-1720,-3444,-109,1707,1894
456,16988,3883,2689,-768,2128,-4728,-384,880,482
457,16988,3819,2691,-2328,100,-5634,-145,458,1596
458,17000,3182,2691,-106,466,-4960,449,-974,1743
459,17000,3472,2691,902,-488,-4536,-84,-177,-1228
460,17000,3736,2688,-556,-8,-3260,42,661,-853
461,16976,3530,2688,-72,-494,-8832,-139,125,-1434
462,16976,3621,2689,62,924,-5836,36,506,-361
463,17000,3845,2691,1174,-558,-4324,452,23,582
464,17000,3456,2689,-86,-1490,-4968,217,-367,382
465,17000,3365,2689,-326,878,-7848,-277,-780,-52
466,17000,3738,2691,1456,-384,-1630,-416,-377,2439
467,16988,3430,2691,176,222,-9316,-1347,385,128
468,16988,3741,2689,-228,1280,518,133,1538,-1646
469,16988,3446,2688,1026,-912,-3434,249,-250,620
470,17000,3555,2689,692,-1920,-2518,433,-520,358
471,17000,3365,2688,998,402,-6854,795,-262,-2960
472,17011,3339,2689,1170,710,-3440,-90,308,-7
473,17011,3478,2689,474,566,-4884,-103,207,-432
474,17011,3303,2689,970,964,-6538,26,-466,550
475,17000,3920,2689,-644,16,90,210,414,2533
476,17000,3432,2690,402,-1050,-1082,930,-167,679
477,16988,3447,2689,818,436,-2448,229,-685,-229
478,16988,3316,2690,-1502,-326,-5876,-509,-834,-1460
479,16988,3579,2688,-354,1262,-1454,-985,1446,1254
480,16988,3748,2688,-42,136,-3662,-597,-444,-293
481,17023,3053,2689,1282,-370,-2768,-122,-1317,3741
482,17047,3987,2692,-534,-1562,-3972,740,-34,-895
483,17047,3147,2688,-102,-162,-8884,-70,262,1316
484,17023,3510,2687,-676,1786,-3820,-338,703,524
485,17023,3796,2687,90,-932,-2074,349,157,627
486,17011,3030,2689,-1806,-268,-1550,-196,-1171,84
487,17011,3652,2690,-1524,1690,-3118,699,1148,-184
488,17000,3575,2689,870,-2448,-2860,275,89,-485
489,16988,3542,2690,-120,1464,-6236,-354,-1190,-69
490,16988,3525,2690,1000,202,-4022,68,1420,841
491,16988,3570,2690,-530,-1244,-3540,275,-205,-988
492,16988,3493,2689,-708,-1158,-3868,23,-304,-296
493,16988,3287,2689,868,-24,-3882,-19,-609,3067
494,16988,3511,2687,1638,2194,-5808,517,670,-479
495,16988,3605,2688,1136,-1328,-6262,152,-517,-2834
496,17000,3424,2690,350,-124,-3814,504,1161,1785
497,17000,3539,2688,576,932,-5316,-161,369,107
498,16988,3604,2691,388,700,-2310,-374,313,-1649
499,16988,3250,2690,852,-1740,-4194,-161,265,420
500,16988,3373,2687,-602,-468,-5658,-171,-1362,-1210
501,17000,3651,2689,1106,1340,-4224,104,-367,397
502,17000,3496,2690,1314,-992,-4690,623,-142,-556
503,16988,3452,2689,-350,-318,-5110,223,45,-1519
504,16988,3475,2689,160,-1564,-2696,-335,427,1375
505,16988,3777,2689,954,-1264,-3292,85,-262,-10
506,16988,3376,2689,592,-624,-2266,100,-21,1077
507,16964,3355,2691,1866,460,-6734,326,-434,25
508,16976,3722,2688,-192,1334,-4420,-216,-1628,-3353
509,16976,3235,2690,1064,-990,-1874,-507,350,762
510,16976,3680,2688,688,286,-7172,750,255,-856
511,16976,3364,2690,646,1266,-4166,-183,-240,-119
512,16976,3708,2692,-472,4420,-7788,-181,1608,756
513,16976,3570,2689,1396,2356,-8320,-487,-50,-1767
514,16964,3395,2687,-712,1504,-2436,-206,-746,323
515,16976,3535,2690,-1298,186,-4292,49,195,-1248
516,16976,3653,2689,626,2276,-2770,120,10,-270
517,16976,3541,2686,-2238,-890,-3034,-458,439,-865
518,16976,3452,2689,166,-1104,-4518,755,273,-1198
519,16964,3549,2689,-418,108,-6494,504,-5,-105
520,16964,3588,2688,-1854,182,-2962,-674,468,217
521,16868,3304,2691,-1340,-1346,-3428,-29,182,-1900
522,16689,3529,2689,778,-966,-11514,-591,216,3467
523,16689,3418,2689,1038,1054,-1382,378,-460,856
524,16330,3723,2689,124,-452,-6298,-181,35,3635
525,16330,3465,2690,-622,182,-370,-193,-180,-169
526,15732,3511,2688,-860,-2882,-1840,249,167,2
527,14871,3588,2689,-1240,408,-5242,401,-69,-735
528,14871,3509,2691,-2602,622,-1434,-474,-167,995
529,14118,3548,2689,-2512,1656,-1074,133,668,2286
530,14118,3480,2687,-3364,910,-3426,-545,-1886,1018
531,13795,3568,2690,-6160,3916,-2786,366,1256,-1009
532,13795,3227,2690,-1700,-286,-2986,68,500,-1192
533,13496,3938,2686,-2504,2200,-3546,-516,204,2589
534,13161,3313,2687,-844,-428,-3900,-491,226,3635
535,13161,4035,2692,-2498,-242,-2722,-281,-5,3214
536,13042,4031,2689,-2826,3276,-1148,-348,-462,3571
537,13042,3111,2689,-684,-2886,-1318,-739,-275,3479
538,12898,3610,2690,-4858,-86,-1422,639,-1038,1896
539,12898,3748,2688,-3342,2246,-7542,-6,1176,2766
540,12695,4149,2688,-2694,-1382,-5824,-700,287,-146
541,12587,3425,2688,-4616,-3414,-2560,149,1176,6188
542,12587,4260,2688,-2672,-2246,-2082,-707,1100,4805
543,12575,3813,2689,-1974,3210,-6934,278,-1200,4301
544,12575,3479,2689,-4998,4766,-6318,-600,-21,3362
545,12671,3827,2689,-2034,2222,-3336,-1391,-377,5077
546,12671,3845,2688,-2870,-2466,-7878,484,808,3235
547,12838,3972,2688,-248,-2114,3462,-290,-539,6359
548,13257,3933,2686,-2022,-4486,-466,-55,674,4354
549,13257,3870,2689,-1724,2444,-2166,834,751,3332
550,13891,3648,2691,-5190,2328,-2262,556,-1745,3898
551,13891,3811,2689,-4024,-1492,-4398,156,-542,6300
552,14465,3651,2688,-1112,-38,-4652,-551,275,5115
553,15110,3906,2691,-1204,-398,-8644,320,32,2218
554,15110,3711,2689,-5952,-128,-7854,-1104,-822,6948
555,15732,3759,2689,-492,-20,-684,950,564,4149
556,15732,3763,2690,-2798,1504,-5200,123,-697,2015
557,16222,3745,2689,358,-2414,-4342,65,887,4514
558,16222,3713,2690,-1398,428,-7006,1192,26,635
559,17047,3779,2690,-950,1198,-3566,17,-577,2993
560,17000,3698,2689,730,-392,-5254,-197,2383,1776
561,17000,3735,2688,446,18,-1304,-22,1325,2801
562,17000,3574,2688,2056,490,-5450,58,280,1858
563,17000,3782,2692,-1580,1826,-2766,-125,-675,-2615
564,17000,3441,2692,170,-850,-4798,1337,-309,465
565,17000,3793,2690,-680,-1140,-4128,-64,-187,-84
566,17000,3612,2689,-770,-1182,-1088,-187,33,317
567,17000,3732,2689,-576,-1176,-2734,-84,763,-111
568,17000,3663,2689,-286,-2094,596,-255,788,-7
569,17000,3785,2691,590,-1984,-5808,39,-393,149
570,17000,3496,2690,900,1106,-5374,791,-50,-750
571,16988,3810,2689,176,-916,-8604,213,-1222,-34
572,16988,4060,2689,-22,44,-3182,-222,52,-1339
573,17000,3444,2688,-162,-922,-2886,-338,865,-225
574,16988,3736,2689,66,250,-1688,-168,740,181
575,16988,3734,2691,222,854,-688,127,-288,-1484
576,16988,3648,2690,1074,-690,-208,-884,522,-2306
577,16988,3712,2689,468,54,-4098,126,588,-1661
578,16988,3829,2688,1406,-2970,-4702,84,-240,-874
579,17000,3813,2689,1968,-152,-3898,-297,-66,-538
580,17000,3693,2690,-888,-236,-4572,523,773,-2622
581,16988,3690,2689,1908,-1114,-7642,-45,-9,-287
582,16988,3771,2689,1618,-942,258,-609,-738,-2185
583,16988,3871,2688,-506,814,-3628,368,-180,-270
584,16988,3664,2692,572,-750,-8082,-9,640,-369
585,17000,3786,2690,-170,8,-4966,352,-120,-178
586,17000,3786,2690,1608,-752,-5286,242,366,-2277
587,17000,3231,2689,1328,1036,-9160,-852,-1670,3609
588,17000,3614,2688,1708,518,-5838,475,446,-511
589,17000,3475,2690,1644,1510,-438,-526,-342,1369
590,16988,3487,2688,-2050,-1610,-4012,-438,173,1529
591,16988,3863,2689,-1890,84,-3058,-265,499,794
592,16988,3314,2690,-648,-770,-2514,326,-778,-2996
593,16964,3544,2690,-40,-1498,-2090,265,509,-40
594,16964,3515,2688,1816,528,-3630,555,-1720,122
595,16976,3666,2690,812,-774,-3946,-542,-266,-559
596,16976,3600,2691,-644,-1824,-3850,1686,941,-2500
597,16916,3848,2689,228,1994,-3300,-1385,-139,3736
598,16916,3700,2688,-378,498,-2206,-384,556,228
599,16617,3820,2690,52,-1164,-3068,1013,-1524,-31
600,16151,3500,2691,800,-460,-5412,-48,14,-877
601,16151,3939,2690,-338,-130,-5634,13,-1028,-308
602,15744,3651,2688,1370,64,-3892,-603,732,1004
603,15744,3930,2690,392,-1160,866,-474,-472,-2203
604,15051,3751,2689,-3004,-978,-1582,1011,-282,-137
605,15051,3931,2689,-1208,448,-5488,756,-460,2000
606,13962,3603,2689,-1764,1546,-6118,526,-898,670
607,13257,3562,2688,-5984,-824,-1710,-170,1186,2563
608,13257,3652,2689,-252,1198,-4678,-445,-691,1168
609,12898,3531,2686,-1810,-472,-3646,-881,-609,2082
610,12898,3752,2688,-758,-1158,-1212,-248,-234,3164
611,12683,3923,2689,-4526,2924,-2986,106,-1727,1773
612,12671,3650,2690,-3536,-3976,-4274,-691,-905,5136
613,12671,3670,2689,-2444,-352,-8488,-112,-1380,-912
614,12695,3619,2687,-808,-1940,-5124,752,-171,485
615,12695,3663,2687,-5500,410,-708,-429,1,6630
616,12838,3716,2687,-4630,3756,-4806,62,1014,4880
617,12838,3776,2689,-1710,-2166,-1364,478,-533,2884
618,12779,3678,2691,-4836,3414,-3812,426,-82,3264
619,12360,3682,2689,-2314,-3814,1280,-93,944,3108
620,12360,3660,2687,-2826,214,-3532,-1026,-834,3568
621,11882,3751,2688,-1832,-1668,-4040,184,-221,2748
622,11882,3708,2688,-1114,-3130,-1062,953,-863,2053
623,11643,3611,2688,-2034,-928,-7606,665,417,5451
624,11643,3825,2687,-2052,2288,-3348,-71,-104,6297
625,11499,3693,2689,-3166,-1282,-2048,227,-808,7485
626,11404,3811,2690,-3080,-2078,-846,365,1090,6609
627,11404,3865,2688,-972,2992,-5314,-494,-260,7093
628,11511,3757,2689,-5446,1240,-5954,152,23,5964
629,11511,3849,2692,-752,466,-648,846,566,2778
630,11404,3898,2689,-2640,936,-5658,872,249,3827
631,11404,3946,2688,-3396,1780,-5782,123,1598,6126
632,10854,4055,2687,-406,990,-6920,-106,-1638,3650
633,10500,3896,2689,-2894,-1640,-4536,1750,-164,2813
634,10500,3823,2690,-1204,-726,-2654,45,-882,5536
635,10500,3909,2689,-3720,-2180,-3626,526,-1346,5392
636,10500,3874,2689,-4242,-822,-4370,-90,1445,5937
637,10500,3753,2687,-920,816,-5244,-451,-561,6878
638,10500,3716,2685,-2218,-3238,-1446,-393,1688,7037
639,10500,4261,2688,-552,-1122,320,-429,-678,12277
640,10500,3415,2690,-4364,124,-4434,355,-1504,5834
641,10500,3595,2691,-8362,1526,-8416,197,-971,4870
642,10500,3480,2691,-5578,-1870,-6560,184,-457,5286
643,10500,4264,2687,-4996,-3114,652,1511,-1311,11761
644,10500,3797,2684,-2596,3206,-4328,-281,35,4525
645,10500,3367,2689,-1224,240,-2614,-529,-472,8351
646,10500,3851,2691,-3360,3758,-5502,-364,-783,4228
647,10686,4483,2689,-5064,-2084,-9050,578,-631,4331
648,10686,3306,2688,-4972,438,-1182,759,-2000,833
649,10997,3700,2690,-6094,1084,-9248,117,87,1702
650,10997,3756,2686,-2128,-2754,-3412,746,-1009,6235
651,11320,3483,2687,-1152,-944,-232,475,334,3898
652,11643,3646,2689,-1752,1980,-3760,879,1986,5469
653,11643,3908,2688,-1398,-1164,-4234,-348,-171,8643
654,12145,3804,2687,-6700,532,-4476,-1052,1071,6521
655,12145,3634,2688,-2236,-1736,-172,-358,2065,6267
656,13042,3626,2687,-6096,58,-5408,-219,-2216,5698
657,13042,3682,2688,-2012,-3664,-7678,-684,-428,5728
658,14190,3591,2690,-4666,-786,-404,-51,-1978,6073
659,14190,3845,2690,-3102,2428,-5234,-355,-346,8360
660,15242,3832,2688,-2004,-580,-2728,123,1083,5893
661,16151,3782,2687,-3660,-1866,-366,472,427,4611
662,16151,4150,2690,-2284,1786,-5046,-487,630,2719
663,16736,3432,2691,-4380,-594,-8896,798,-615,3803
664,16736,3469,2691,-3604,490,-7998,68,-996,4478
665,16964,3383,2689,-2782,724,-1348,407,-428,3700
666,16964,3706,2687,-2000,598,-3018,-471,427,2351
667,16964,3806,2689,-1472,418,-2736,162,125,3176
668,16976,3957,2691,-1392,2766,-4758,911,322,1761
669,16976,3916,2691,-3078,710,-9580,-358,389,1750
670,16988,3626,2691,-2140,2334,-3082,-658,128,3167
671,16988,3599,2689,-2172,-62,-1426,-164,-507,880
672,16988,3557,2689,-1824,3076,-4874,-216,-129,953
673,17023,3856,2690,-836,1882,-1780,323,61,-1119
674,17023,3928,2688,-3544,688,-9302,918,1723,892
675,17000,3726,2688,196,-362,-9348,727,490,706
676,17000,3732,2688,-2178,1976,-7234,1302,1472,-461
677,17000,3788,2687,-686,3518,-4600,-371,989,-874
678,17011,3806,2686,-1524,2762,-3794,-716,-43,1196
679,17011,3848,2690,-396,1048,-3524,87,341,747
680,17035,3869,2687,-76,-646,-1548,1599,-510,-4522
681,17035,3981,2687,482,-392,-6270,0,-244,258
682,17047,3872,2690,2654,-748,-3172,581,-285,656
683,17047,3859,2688,746,784,-6950,-1068,293,3594
684,17047,3983,2688,-550,440,-2334,523,934,-93
685,17035,3853,2688,762,1012,-2910,1049,1255,-1844
686,17035,3954,2688,132,-638,-1582,-22,693,-2925
687,16976,3993,2688,270,1408,-4796,91,1189,-1466
688,16976,3971,2689,-2134,-610,-4020,781,1071,1115
689,16964,3661,2688,-2188,-180,-4500,365,-393,-659
690,16964,4209,2690,-612,286,-3540,27,1024,-526
691,17047,3969,2689,-1332,-290,-6438,427,-723,-358
692,17310,3270,2689,-322,262,-1926,-396,586,482
693,17310,3806,2690,-1870,444,-2748,-200,-594,393
694,17920,3927,2689,-1910,-674,-3492,90,19,54
695,17920,3779,2688,-514,1556,-9128,-949,483,-358
696,18410,3674,2689,-2942,720,-2786,158,-371,859
697,19176,3631,2689,5130,-1256,-5730,455,172,-464
698,19176,3762,2689,1996,-1936,250,-1071,-977,1349
699,20132,3770,2690,964,1654,-3266,-309,932,-1825
700,20132,3608,2691,3360,-2952,-472,-358,-158,-2162
701,20862,3778,2690,2578,-1634,-3776,413,102,-2869
702,20862,3718,2691,5858,416,-4574,155,563,-3854
703,21232,3707,2690,396,-816,-5538,-329,-1234,-1289
704,21232,3885,2691,2096,618,-5512,384,-88,-3341
705,21232,3347,2692,2314,-886,-3554,-122,318,-4181
706,20957,3797,2690,1982,-1802,-3710,17,-2044,-4823
707,20957,3854,2689,960,234,-5714,-888,-1146,-5949
708,20228,3845,2689,6320,286,-6620,-494,-5,-6889
709,20228,3598,2689,1432,-1984,-3492,375,274,-3918
710,19367,3713,2689,4884,-1420,-3478,-128,2386,-5875
711,18494,3943,2688,1604,-996,-1158,527,-627,-3841
712,18494,3728,2689,2526,2,-4868,-378,360,-5457
713,17956,3646,2689,1008,-1560,550,-236,-356,-5212
714,17956,4042,2689,4848,2890,-8072,-1059,-1146,-5227
715,17621,3454,2690,2668,-1164,-730,621,214,-3567
716,17621,3584,2689,1424,300,-3174,740,770,-4784
717,17370,3691,2687,1258,-1332,-4378,449,1294,-6087
718,17131,3586,2687,1462,350,-4988,187,109,-3580
719,17131,3748,2689,1020,1172,-3164,-764,-440,-921
720,17107,3645,2689,956,-2544,-1530,181,-800,-1086
721,17107,3745,2688,2808,2776,-4866,-491,-215,-2118
722,17035,3796,2687,-936,-1002,-852,-835,36,-2568
723,17035,3713,2688,3216,3350,-5540,311,754,-927
724,17035,3990,2689,1918,4026,-6484,413,1287,-765
725,17083,3282,2689,-100,4236,-3876,200,242,6712
726,17083,3890,2689,1724,-2624,206,340,-1406,1732
727,17107,3635,2689,-664,814,-7370,45,-139,-105
728,17107,3682,2690,-658,2998,-6186,259,-1205,1104
729,17119,3710,2689,-372,1162,-5602,1059,-774,-1640
730,17047,3761,2689,718,-2288,-2096,365,350,-2804
731,17047,3651,2688,1534,650,-3706,562,303,-499
732,17047,3639,2689,-182,1036,616,26,299,-175
733,17047,3931,2690,184,-964,-3290,155,-187,-1334
734,16976,3639,2688,-24,1012,-3760,165,421,-2020
735,16976,4033,2688,3750,2968,-3088,-1934,-72,1113
736,16904,3471,2690,222,-1652,-2168,-223,274,-1764
737,16641,3838,2689,-934,406,-4698,-319,-126,-1313
738,16641,3721,2688,602,2618,-4658,-632,-297,244
739,16043,3836,2688,2138,1970,-8144,120,947,-1626
740,16043,3871,2689,4312,-16,-6606,-93,-599,-1257
741,15074,3682,2689,-682,-846,-1000,-197,-663,-1466
742,15074,3893,2688,-1130,-1030,-1312,129,-956,-1089
743,14058,3835,2687,1258,2060,488,578,191,759
744,13161,3838,2687,-4564,1492,128,484,-1549,-143
745,13161,3847,2687,-2774,254,-8736,-61,1255,3892
746,13161,3711,2687,-5054,-1504,-1052,-652,-584,-1670
747,13149,3865,2689,-6092,1356,-6524,585,1826,1858
748,12276,3701,2687,-628,1800,-5116,-19,195,995
749,12276,4119,2688,-832,-370,-5306,-374,-1044,3261
750,11643,3912,2689,-980,-2286,-4124,472,-380,2324
751,10650,3389,2689,-2174,1608,-5180,1027,-742,6212
752,10650,3767,2689,-5750,1728,-6142,-687,865,5269
753,10500,3870,2687,-1328,1930,-7892,239,-12,2778
754,10500,3824,2687,-298,-4748,-6972,688,-669,3677
755,10500,3834,2690,-692,614,-3488,-603,-221,3763
756,10500,3655,2688,-1830,1724,-2004,533,-878,1921
757,10500,3966,2687,-4000,652,-3416,2519,-364,544
758,10500,3821,2689,-3230,108,-5204,85,557,5227
759,10500,3754,2691,-3304,-338,-5710,-600,-205,4367
760,10500,3978,2688,-2780,-2806,-728,507,1459,6986
761,10500,3827,2688,-4514,-4068,452,-901,-2492,6653
762,10500,3828,2688,-3284,3258,-5446,-684,-1399,6203
763,10758,3850,2689,-106,148,-4108,7,1376,5162
764,10758,3928,2689,-4896,2138,-4474,394,-1063,3503
765,11320,3920,2690,-3490,-2378,-2744,420,1741,5342
766,11320,4146,2688,-2482,-2536,-1740,-439,-768,5472
767,11631,3057,2687,-5620,-3446,-1018,-210,1045,4142
768,11631,4286,2688,-2020,2232,-3632,-835,-440,5549
769,11416,3814,2689,-3996,10,1568,1050,-215,2460
770,10925,3492,2690,-5022,1966,-7496,272,-545,4812
771,10925,4268,2691,-4414,-2154,-4828,246,52,5766
772,10507,3272,2690,-3268,2384,-5934,1275,-514,7013
773,10507,3660,2687,-3320,-4382,-1132,630,-342,4761
774,10500,3695,2687,-3416,448,2562,2012,2402,1867
775,10500,3718,2690,-258,-468,-5626,-507,-853,4281
776,10500,3803,2688,-552,-2222,-5548,-281,892,5486
777,10500,3810,2687,-2240,1198,2138,807,-2013,5271
778,10500,3743,2689,-10566,2458,-8014,546,-935,4667
779,10500,3666,2690,-7166,-3018,-5870,-252,1278,4357
780,10500,3596,2685,-4732,944,-5716,255,-758,6718
781,10500,3636,2686,-3252,-3042,-3080,-639,1046,6686
782,10500,3778,2691,-308,-2566,3228,336,360,5604
783,10500,3942,2689,-3992,796,-5426,-177,-1342,8218
784,10500,3623,2687,-7484,-1120,-4116,420,725,2766
785,10500,3501,2688,-6154,1454,-2348,743,432,7396
786,10500,3832,2689,-4824,2944,-8652,-613,-1193,7385
787,10500,3752,2688,-3030,-2578,1012,-432,347,8528
788,10500,4036,2688,-1438,-2564,3672,633,-1542,9000
789,10500,3958,2691,-4858,-2204,-1890,36,106,7266
790,10500,4101,2690,44,-1614,-388,439,630,6594
791,11057,3519,2688,-9498,-172,-5024,-474,-669,9622
792,11057,3629,2689,-1276,124,-4950,-184,1229,8764
793,11738,3792,2689,-6660,-370,-990,310,-402,6111
794,11738,3746,2688,-3074,942,-6686,46,-1193,3945
795,12492,3568,2690,-4016,2452,-3354,-70,-802,8381
796,13293,3868,2689,-3384,-1740,-792,-29,-9,4997
797,13293,3828,2690,-8786,1604,1078,623,-310,4741
798,14202,3715,2688,-1306,-4300,-7400,175,3231,4248
799,14202,3882,2688,-2680,1406,-8546,901,576,2920
800,15122,3783,2688,-4114,3818,-7064,145,-1397,3152
801,15122,3607,2690,-1576,4468,-6428,-500,-444,726
802,16043,4131,2689,-2250,-1926,-6216,545,137,5666
803,16796,3392,2686,214,-192,-1342,553,55,2598
804,16796,3873,2688,-2184,2104,-2010,284,-60,5516
805,16964,3784,2689,488,482,-9736,169,-634,2849
806,16964,3605,2692,1090,344,-938,1427,-269,-5345
807,17000,3524,2689,-2902,-1098,-6040,707,576,-1183
808,17000,3722,2687,2242,-714,-1892,-396,710,-487
809,17000,3665,2687,-494,2136,-4462,-448,700,-434
810,17000,3666,2692,52,1320,-3484,294,486,-582
811,17000,3729,2690,210,3888,-4378,262,-462,323
812,17035,3760,2686,-2704,1856,-5908,-529,-739,-1239
813,17035,4125,2689,-352,-572,-9306,623,20,-1074
814,17191,3780,2687,1524,-226,-4376,-345,557,-2418
815,17490,3554,2686,476,-2098,674,-1030,-177,1628
816,17490,3841,2687,-1262,308,-3820,62,630,833
817,18195,3754,2689,-1880,2750,-7102,462,340,-214
818,18195,3875,2688,-1222,738,-8172,68,-860,273
819,18482,3690,2688,-890,-976,-1480,448,2052,3235
820,18482,3742,2688,2844,1388,-3618,252,-1245,-1357
821,18494,3697,2688,444,-3038,-2140,-429,1322,382
822,18255,3739,2691,2794,1598,-2260,291,106,-134
823,18255,3851,2691,-1066,-268,-3444,-197,-609,-812
824,17789,3440,2691,2606,-370,-3546,68,-902,-5849
825,17789,3577,2690,1810,-2594,-2522,130,-1101,-2925
826,17119,3376,2691,530,-412,-488,75,351,-4896
827,17119,3642,2691,1118,510,-6876,865,1890,-6456
828,17083,3998,2688,1828,-2174,-982,-549,-647,-2639
829,17035,3415,2689,-428,-2680,-1996,-196,316,-2173
830,17035,3827,2689,-300,482,-5808,14,-697,81
831,17047,3596,2689,3170,-394,-536,-542,-774,-1575
832,17047,3670,2688,172,-738,-6034,255,544,-3241
833,17047,3608,2690,1384,-220,-6424,259,370,-1537
834,17047,4089,2689,2822,-806,-3490,468,-980,2719
835,16988,3886,2690,1184,1882,-8712,-961,-523,2192
836,17000,3468,2689,1844,-1752,-846,-290,541,-19
837,17000,3409,2689,-814,-2184,-3754,-206,1449,-4066
838,16988,3561,2689,3344,1094,-5124,142,-1882,-2191
839,16988,3693,2689,-328,-1462,-5698,694,-139,-1004
840,17000,3735,2688,1140,-624,-3324,210,944,1646
841,16964,3869,2689,1058,-618,-5372,-480,-202,391
842,16964,3464,2690,456,-624,1362,-649,-145,-3594
843,16964,3967,2688,718,-1648,2022,-632,903,-2707
844,16964,3503,2688,2164,1256,-3280,-352,226,-1086
845,16772,4114,2691,1764,1788,-2710,710,-1130,-3662
846,16772,3175,2689,-1084,1418,-9526,530,-625,-1425
847,16772,3721,2689,2276,-1130,-8076,246,-123,-432
848,14596,3598,2690,-854,-4,-6418,191,451,-3709
849,14596,3473,2688,2612,-182,-1122,-2072,-443,3568
850,13556,3620,2690,-4486,2702,-4346,-9,-993,-1212
851,13556,3466,2691,-3796,504,-2944,443,1150,894
852,12910,3566,2688,-186,-528,774,223,-1073,670
853,12910,3964,2688,-5808,-2600,-6584,553,-1955,2740
854,12599,3115,2688,-1220,294,-562,-274,-127,2439
855,12217,3672,2686,-2034,-260,-4972,682,-465,556
856,12217,3454,2688,-3372,1532,-7018,-852,430,2937
857,12049,3618,2691,-1372,-3354,156,-77,-570,3754
858,12049,3702,2688,-2046,1484,-7778,814,338,3279
859,11978,3737,2687,-1504,-916,-2936,-723,-31,5492
860,11978,3678,2687,-906,2530,-3132,498,-577,5507
861,11870,3992,2689,-5154,-908,-3160,81,-326,868
862,11798,3147,2690,-2818,-1064,-7358,6,23,2916
863,11798,3630,2688,-3544,-3400,-5960,1776,1274,9430
864,11738,3665,2687,-2996,3830,-3480,-555,788,4605
865,11738,3719,2689,-2022,-638,-2646,-717,-911,3965
866,11619,3776,2691,-1408,286,-1464,229,-218,4083
867,11619,3776,2690,-5284,1208,-2762,-122,-373,3273
868,11559,3636,2690,-2670,162,-5050,310,-323,4007
869,11619,3671,2688,-6016,-1802,-504,956,-812,5268
870,11619,3832,2686,-3626,320,44,52,1020,5581
871,11619,3840,2688,-3354,2184,-4672,-200,90,7146
872,11619,3742,2691,-4658,-2288,-1468,-28,1262,7013
873,11320,3795,2690,-1558,4198,-5082,-865,-599,4729
874,10913,3777,2688,-3858,-3722,-3760,695,1526,1422
875,10913,3523,2690,-1764,-1366,-1656,261,-397,5068
876,10770,3709,2689,-4660,0,-5984,-868,-335,2952
877,10770,3734,2689,-2234,-2806,-3428,814,979,3282
878,10937,3682,2688,-4738,136,-3770,-1149,-408,5151
879,10937,3798,2688,-1482,2506,158,-1327,995,7614
880,11416,3932,2689,-2468,4950,-6362,-158,-1651,4207
881,11918,3775,2692,-4754,-5182,782,869,-465,4096
882,11918,3750,2691,-1358,-288,-3866,162,-507,4464
883,12683,3943,2686,-3262,-4632,-11256,252,887,367
884,12683,3853,2688,-5236,362,1226,788,1735,6766
885,13520,3378,2686,-590,464,-1620,-797,512,6379
886,13520,4063,2688,358,786,854,413,864,4676
887,14237,3888,2691,-4486,3484,-6584,743,-1102,5427
888,14871,3878,2692,-3050,10,830,1392,1144,4968
889,14871,3458,2691,-7900,1934,-4138,1473,-967,694
890,15062,3835,2687,-288,-1718,-4588,-1456,1249,5404
891,15062,3664,2688,-4146,1900,-5934,262,633,5289
892,15098,3736,2689,-1964,1960,-1604,-1294,1208,7903
893,15098,3870,2689,-1398,1636,-4960,-206,359,4578
894,15146,3811,2690,768,-1490,-3790,-322,-78,4550
895,15122,3674,2692,-2444,1526,-2032,1150,230,2312
896,15122,3639,2693,-2386,-330,-5530,623,-507,1714
897,15242,4070,2686,-3394,8,-4932,1018,605,6241
898,15242,3286,2686,-1350,-782,-3074,149,-348,3464
899,15457,3602,2689,-1468,38,2178,-784,77,1911
900,15457,3559,2690,-3032,-2390,-2124,707,166,4564
901,15720,3575,2689,-4272,258,-12460,2260,-1320,1899
902,15852,3477,2691,-4250,598,-4402,-145,1395,891
903,15852,3567,2689,-1332,-1388,-7978,746,1488,2065
904,16270,3508,2687,-3124,1118,-6488,-516,1637,1676
905,16270,3598,2687,-1912,-960,1312,-817,992,2571
906,16892,3587,2691,942,1380,-4086,-884,-1378,4237
907,16988,3591,2691,-1376,-1852,-1540,-326,-895,4605
908,16988,3580,2691,-2000,-446,-6300,143,487,2041
909,17035,3785,2690,-4094,-1028,-1748,469,189,500
910,17035,3638,2687,-944,2782,-2776,-116,922,729
911,17035,3640,2688,-1082,-1696,-1086,55,-218,-2495
912,17035,3635,2690,-1106,-384,-4298,-223,1537,694
913,17119,3865,2689,2868,534,-2246,550,332,-1528
914,17263,3105,2690,-404,-1648,-5418,462,43,-157
915,17263,3496,2690,-68,-712,-6880,-116,484,1174
916,18028,3443,2689,-1674,1036,-2438,-248,-647,361
917,18028,3439,2690,74,-86,-4712,-775,1429,1089
918,19224,3381,2688,-1728,146,-3676,-420,-606,2675
919,19224,3589,2690,296,-846,-1020,-90,2779,-40
920,20168,3126,2689,4006,1584,-4594,326,80,-178
921,20611,3740,2690,1214,-2832,-2562,-510,-66,1080
922,20611,3641,2692,3368,250,-3720,769,1910,-4187
923,20634,3629,2692,5650,-604,-4826,643,357,-5109
924,20634,3435,2690,3110,406,-2062,401,516,-3334
925,20539,3392,2691,2390,-832,-3112,533,1191,-3927
926,20168,3470,2688,936,120,-4602,395,205,-3352
927,20168,4030,2692,3660,1002,-3534,404,122,-3420
928,19654,2903,2690,2074,-430,-5516,-91,-775,-5646
929,19654,3729,2689,3648,-1302,-5006,-1733,922,4933
930,18865,3483,2690,1988,1040,-5958,1130,369,-6111
931,18865,3492,2689,104,-1568,-4378,484,598,-4399
932,18100,3437,2689,750,-2380,-3570,814,-1002,-2568
933,17502,3360,2691,710,3894,-4958,-920,-301,-1570
934,17502,3925,2689,-278,-332,-1638,-199,-1012,-2247
935,17143,3067,2688,-1042,1350,-4778,-649,611,-2990
936,17143,3565,2690,530,-1674,-1562,-491,230,-2451
937,17119,3490,2688,1758,2870,-2522,-255,64,-1525
938,17119,3601,2688,684,-370,-2574,-74,427,-1442
939,17047,3481,2689,2400,1284,-6670,704,-40,-1045
940,17035,3586,2689,1182,-450,-234,-132,-396,-1307
941,17035,3981,2690,726,-1130,-3432,91,-615,-1941
942,17047,3204,2690,380,1094,-282,-461,468,1249
943,17047,3608,2689,2078,262,-3644,-225,-542,143
944,17047,3596,2690,1142,912,-1702,371,-796,-3394
945,17047,3307,2691,-912,-2096,-5220,433,-167,-1770
946,17047,3889,2690,2296,2668,-6888,-839,646,278
947,17047,3348,2689,-2228,-706,-5676,882,-580,-3102
948,17047,3719,2688,-92,-3960,2686,355,214,-2185
949,17047,4174,2689,-554,4744,-2122,74,-28,523
950,17047,3299,2690,1466,-374,-3368,901,65,-1469
951,17035,3753,2689,4106,312,-5444,-687,-1168,1911
952,17035,3589,2689,-2684,-1058,-6778,-174,-269,-1148
953,17047,3739,2690,1782,-1042,-2220,-116,-21,-1746
954,17047,3679,2689,164,424,-3090,301,494,-2972
955,17047,3681,2690,-332,-1650,-3130,191,-183,-3441
956,17047,3717,2689,1486,2524,-6106,42,77,-2100
957,17047,3536,2689,-370,-1144,-2122,129,417,-164
958,16976,3571,2689,-62,-1452,-4972,-161,-1196,-3877
959,16617,3828,2688,14,536,988,-310,303,-1127
960,16617,3308,2689,-106,738,-6148,-316,1326,158
961,15337,3675,2689,476,-1350,-3182,145,442,-4196
962,15337,3470,2689,1832,-2480,-7322,666,1002,-1899
963,14465,3466,2688,-604,330,-6722,-277,-237,-873
964,14465,3590,2690,2216,-380,-392,-742,-965,-3205
965,14142,3739,2691,-478,-962,-9558,-413,-1266,-2893
966,14118,3637,2688,-3100,2364,-5286,-768,480,-2191
967,14118,3768,2686,-492,1152,-3032,1014,766,-8148
968,14130,3054,2685,-1388,-106,-8174,-539,-231,-243
969,14130,3625,2689,-1732,-370,702,-1078,-780,4242
970,14070,3401,2687,-2162,1892,-6726,-759,-486,1481
971,14070,3654,2689,-1474,-3032,-3256,39,769,877
972,13293,3365,2690,-1926,1022,-4614,-713,-892,5230
973,11798,3678,2689,-2816,602,-2738,1708,903,4186
974,11798,3771,2690,-366,-892,-3994,-968,-824,6368
975,10626,2833,2688,-4146,-4038,-2576,679,-662,559
976,10626,3653,2688,-1596,-580,-4620,-16,143,4428
977,10500,3386,2688,150,-882,-2650,-290,-288,3659
978,10500,3479,2688,-1802,-2452,-1410,507,696,2701
979,10500,3580,2689,-1238,-1272,44,-403,-1000,4343
980,10500,3773,2690,-2866,-2920,-2344,-471,-389,7570
981,10500,3438,2690,-4624,-1580,-8340,636,-952,4614
982,10500,3506,2688,-4734,-1698,-1294,207,20,5985
983,10500,3414,2687,-4862,1706,-2804,465,-1244,6730
984,10500,3486,2687,-2782,-1868,-1612,417,906,3435
985,10500,3526,2689,-3190,1438,-1298,-352,620,6459
986,10500,3537,2690,-3412,-2170,-2246,-513,125,5012
987,10500,3631,2686,-1820,-2980,-6178,818,1,6291
988,10500,3791,2689,-4246,1760,-8790,710,-251,6161
989,10500,3158,2690,-5460,2426,-5070,-720,223,6264
990,10500,3436,2689,-1062,-1900,-1652,853,789,7302
991,10500,3489,2688,-3502,1108,-2412,-35,408,4190
992,10500,3628,2689,-628,-2094,-1130,252,-926,-2103
993,10500,3579,2691,-374,-1264,-7692,716,-752,4894
994,10500,3592,2691,-6596,-1306,-2534,178,-53,6733
995,10500,3687,2690,-5704,2004,-2652,924,389,5622
996,10500,3200,2688,-2282,-4336,-7888,272,344,6067
997,10500,3685,2687,-4806,-1242,-5008,-516,1449,5772
998,10500,3373,2687,-2964,282,-454,807,1576,3971
999,10500,3488,2689,-1694,1498,-10102,-542,-1584,5115
1000,10500,3696,2691,-4264,398,-2942,346,-993,6989
1001,10500,3521,2692,-1558,852,-3430,-985,-1073,9480
1002,10500,3289,2689,-5158,-878,-6410,-171,-1022,5383
1003,10500,3466,2686,-4494,382,-4984,-768,270,12439
1004,10500,3676,2689,-2770,-1338,-2448,352,858,1699
1005,10500,3554,2691,-5566,-2212,-7292,94,2217,6270
1006,10500,3373,2688,-94,2584,174,-316,391,2159
1007,10500,3705,2688,-3972,852,-5012,291,-876,4817
1008,10500,3609,2690,-406,2946,-6644,-923,-1872,4001
1009,10500,3361,2693,-968,-936,-7090,94,-660,3933
1010,10500,3131,2690,-3408,-3142,-1034,142,-434,6901
1011,10500,3584,2686,-4798,-694,-6302,-639,-939,7095
1012,10500,3964,2688,-6154,2294,-1148,-110,1160,6815
1013,10500,3123,2688,-3548,-2808,90,-833,258,4472
1014,10500,3588,2689,-3252,388,2764,284,-101,1929
1015,10500,3755,2689,-1802,-856,-6260,924,106,5421
1016,10500,3551,2691,-2188,-746,-11962,-290,-869,5637
1017,10500,3453,2689,-2996,4446,-6606,404,141,4785
1018,10500,3670,2687,-1012,4386,-7230,504,-47,5819
1019,10500,3859,2685,-2070,-1682,-8540,-97,502,3618
1020,10500,3663,2689,1446,3348,-1848,578,-152,4584
1021,10500,3555,2691,-2046,-986,-8898,-58,-832,5150
1022,10500,3663,2689,-6030,192,-606,1640,1493,6120
1023,10500,3765,2689,-1570,110,-3766,-432,-790,3515
1024,10500,3706,2688,-3022,-1966,-9780,-132,836,5215
1025,10500,3817,2688,-186,4706,-926,659,-694,4785
1026,10500,3865,2689,-4486,-212,-1772,2231,-1105,4461
1027,10500,3144,2691,-4162,146,-10718,317,2087,6226
1028,10500,3609,2687,-660,-1506,5412,-113,-1136,8578
1029,10500,3617,2685,-7640,634,-7494,1131,1110,3329
1030,10500,3668,2689,-3572,-136,-2068,284,-425,5392
1031,11117,3618,2688,-4606,324,-6182,-262,-2267,5236
1032,12420,3727,2689,-898,-476,-4626,-952,-76,6382
1033,12420,3691,2689,-682,2152,1302,894,480,1248
1034,16748,3808,2690,-3862,-1366,-3738,621,-84,5384
1035,16748,3955,2691,-296,-2300,-5638,1027,-463,6627
1036,16581,3225,2686,-5192,1820,-5570,507,474,5928
1037,16581,3764,2687,1714,-2274,-6026,87,1833,5186
1038,17035,3713,2689,-3264,2294,-3930,820,64,6161
1039,17047,3668,2689,-414,-4,-5336,723,-1155,4369
1040,17047,3475,2692,-1148,-228,-3770,-168,99,3087
1041,16976,3594,2694,-76,366,-1910,1011,-678,-4879
1042,16976,3599,2690,1100,3948,-6386,-480,-269,774
1043,16808,3712,2688,130,-110,-3956,-758,-586,1646
1044,16808,3943,2690,-1740,2392,-6548,498,1256,-151
1045,16091,3378,2691,-240,-1550,-3246,-897,1150,393
1046,15062,3778,2689,-1360,782,2590,901,-1237,615
1047,15062,3654,2688,-4416,1622,-6788,339,585,729
1048,13771,3656,2691,-1736,646,3974,36,605,-552
1049,13771,3612,2688,-9884,2796,-6352,1240,-1041,-2869
1050,12217,3650,2687,-2296,-456,-3196,-813,370,1652
1051,11224,3724,2688,-3592,1588,-1040,849,-1492,2309
1052,11224,3711,2685,-3888,-2242,-6898,-393,703,709
1053,10519,3700,2689,236,236,2720,804,-453,4811
1054,10519,3951,2687,-5072,-1062,-6068,1343,-79,3249
1055,10500,3160,2690,-1694,-1888,576,1,2091,1767
1056,10500,3703,2690,-2066,4018,-8370,133,-2231,2722
1057,10500,3680,2688,-3656,-4606,-2634,371,115,10623
1058,10500,3831,2687,-3024,-440,-1250,2054,1062,-1676
1059,10500,3671,2690,-5294,-3582,-3674,-697,397,4080
1060,10500,3702,2689,-3884,50,-4200,-1355,-1412,10871
1061,10500,3463,2690,-2288,-636,-2656,-374,-161,6966
1062,10500,3510,2689,-748,1822,-4902,769,109,5383
1063,10500,3712,2689,-2612,-1422,-4014,675,-714,3473
1064,10500,3615,2692,-7860,862,-3122,26,719,5224
1065,10500,3676,2688,-4320,-3612,-6772,475,-980,3830
1066,10500,3743,2686,-3364,2010,-4264,-110,-977,3258
1067,10500,3496,2687,-954,1092,-2938,29,1049,6026
1068,10500,3389,2689,-2634,896,444,-161,-821,7178
1069,10500,3753,2693,-4766,-262,1410,1382,-573,4178
1070,10500,3467,2692,-5642,-744,-8146,1011,-323,5961
1071,10500,3401,2689,-5878,618,-3358,197,1802,8136
1072,10500,3202,2686,-5058,-1820,-1646,472,-1371,4690
1073,10500,3254,2685,-492,-2512,-2672,-478,-907,7564
1074,10500,3554,2690,-2044,2314,-1944,-265,287,3706
1075,10500,3548,2691,-1160,-248,-2818,116,719,3715
1076,10500,4042,2689,1120,-3472,-5330,417,-1412,6541
1077,10500,3312,2692,-5854,-950,-6364,572,370,3680
1078,10500,3876,2691,-4866,-54,-5434,171,-637,6105
1079,10500,3088,2687,-6402,748,-5410,-235,1233,8292
1080,10500,3549,2685,-1756,-2012,-2932,-687,1192,8277
1081,10500,3574,2688,-2948,5038,-180,652,74,6167
1082,10500,3647,2691,-2590,-1132,672,559,499,6895
1083,10500,3536,2692,-2350,118,-3228,91,-2314,7405
1084,10626,3525,2690,-8034,2234,-6930,420,-1200,6129
1085,10626,3740,2688,-4520,-108,-4498,324,-246,6949
1086,11392,3098,2689,-1284,-3130,436,798,-1428,6627
1087,11392,3483,2690,-3506,-112,-4980,-706,1500,6639
1088,12145,3596,2690,-4000,800,1050,785,1030,6435
1089,12145,3746,2690,-2590,2242,-6206,-326,166,3650
1090,13125,3580,2689,-4254,-2164,-9406,20,-412,4484
1091,14214,3588,2689,-3656,222,-6522,123,-730,3750
1092,14214,3467,2688,-5324,2782,-6270,-442,-402,4979
1093,15254,3520,2689,-2904,356,-3548,223,-386,5846
1094,15254,3689,2691,-2422,706,-2054,-55,-501,2675
1095,16306,3641,2691,-1780,-1906,-10064,-294,2297,4169
1096,16306,3792,2688,-476,1108,-52,-216,842,2560
1097,16964,3573,2689,-1754,1524,-6020,26,960,4431
1098,16964,3613,2691,-892,3174,-1760,178,-1006,2657
1099,16964,3405,2692,-436,454,-2192,384,-1349,3002
1100,16964,3412,2692,-2070,-1944,-3904,465,-1012,1419
1101,16964,3788,2686,-268,2722,-9390,-348,-329,494
1102,16976,3160,2687,-380,3950,-1922,-435,106,1030
1103,16976,3625,2690,-414,-3960,-5822,592,668,1602
1104,16976,3563,2688,-1404,2944,-5902,678,1493,1484
1105,16976,3538,2688,-344,1630,-4808,853,-9,-3061
1106,16976,3593,2691,-2378,1480,-3958,194,944,96
1107,16964,3570,2690,-382,706,-778,258,185,37
1108,16964,3623,2687,-1200,2170,-4606,-891,-269,-585
1109,17000,4055,2688,1200,534,-3030,-468,87,-237
1110,16988,3356,2688,1486,2872,-3830,310,-730,-137
1111,16988,3743,2688,-634,-3566,-5484,1385,-101,-880
1112,16964,3635,2688,2248,1186,-9456,349,846,-620
1113,16964,3742,2688,1370,1724,-5292,-161,42,-1248
1114,16976,3681,2688,-196,588,-1730,-465,1414,87
1115,16976,3717,2689,636,170,574,-1158,65,152
1116,16772,3768,2688,-1568,-1962,-1296,536,188,-1021
1117,16318,3655,2690,634,618,-2630,368,284,-2082
1118,16318,3673,2689,-132,-1648,-3544,145,-91,-1071
1119,15971,3980,2687,-444,-282,-3222,326,1277,632
1120,15971,3623,2688,2584,360,-2488,165,337,-954
1121,15768,3211,2690,-94,-2538,-1852,91,553,995
1122,15768,3769,2689,-2178,-104,-1690,36,-434,809
1123,15756,3585,2691,-764,182,-2610,87,724,1224
1124,15840,3605,2687,-1526,-482,-1798,-671,861,965
1125,15840,3595,2688,-306,692,-4948,239,105,-1077
1126,15959,3439,2690,-2646,-30,-660,281,1478,1634
1127,15959,3459,2689,-50,-698,-6544,-926,357,232
1128,16210,3273,2688,538,1378,-4540,485,284,1532
1129,16210,3518,2689,800,3054,-4684,-684,236,-1660
1130,16270,3351,2689,-346,-1866,3566,223,-958,1024
1131,16163,3147,2691,-1628,116,-1028,517,-359,2630
1132,16163,4169,2691,-304,868,-5748,68,83,-544
1133,15027,3478,2691,-798,-1028,-4886,-213,172,-576
1134,15027,3312,2688,776,-548,-5546,-1062,1,2548
1135,13412,3435,2689,-1332,-120,-3486,-19,-2000,-1148
1136,11918,3432,2689,-5822,-632,-4240,-1785,-1076,2896
1137,11918,3479,2689,1086,-1018,-4952,-523,-136,1242
1138,11045,3513,2688,-4138,-1946,-8732,-258,-352,5304
1139,11045,3378,2689,-3426,-3438,-5010,-781,760,6185
1140,10500,3718,2689,-2300,774,-1426,-745,-34,4918
1141,10500,3456,2689,-5538,738,1046,966,324,-500
1142,10500,3250,2690,-988,-1412,-1846,-16,-1158,3423
1143,10500,3762,2690,-4184,-856,-2888,859,-1231,4779
1144,10500,3576,2689,-3262,-84,-2846,288,1068,4464
1145,10500,3601,2690,-3482,-1350,-3400,313,-409,3037
1146,10500,3530,2690,-4840,1696,-2090,-1023,468,5015
1147,10500,3572,2689,-1552,-2238,-2792,213,233,6365
1148,10500,3914,2690,-2930,-1648,-8186,62,-1127,5757
1149,10500,2976,2690,-3890,-2084,-4916,-149,-181,5592
1150,10500,3268,2688,-3452,1900,-8832,-607,-1438,6727
1151,10500,3724,2689,-2578,886,-4490,-346,-289,7355
1152,10500,3439,2689,-2240,-3430,500,-171,585,7081
1153,10500,3432,2689,-3466,5150,-3904,87,-479,6002
1154,10500,3782,2689,-876,-4046,-2882,-3,548,4995
1155,10500,3982,2690,-4082,270,-6270,-48,-1488,12372
1156,10500,3130,2688,-4436,2130,-2564,-129,-704,3494
1157,10500,3467,2686,-3128,-868,-5590,-610,150,6462
1158,10500,3821,2687,-1658,-1674,-1510,-255,-914,6586
1159,10500,3769,2690,-5058,2040,-1870,349,486,5454
1160,10500,3713,2691,-3422,178,840,653,173,5348
1161,10500,3860,2691,-2836,186,-4140,1395,887,4708
1162,10500,3909,2689,-6696,-124,-10488,282,147,5236
1163,10500,3714,2690,-2874,-2098,-1810,-316,623,5038
1164,10500,3398,2689,-2216,-570,-2244,136,-883,4944
1165,10500,3997,2687,-1744,-5148,-7658,-312,649,7989
1166,10500,3195,2688,80,-1370,-6674,339,334,6703
1167,10500,3424,2688,-3200,458,-2492,630,318,4632
1168,10500,3592,2688,-3290,-1850,-1846,917,-79,7470
1169,10500,3685,2689,-3568,1196,-1274,-139,519,7706
1170,10500,3483,2690,-4780,-1336,-1846,-687,125,5725
1171,10500,3384,2688,-5434,-1260,-4380,-752,1068,12610
1172,10500,3866,2689,-4842,-70,-3004,1376,303,9961
1173,10500,3112,2690,-6722,2280,-5098,242,-790,5153
1174,10500,3460,2686,-6114,1020,-272,630,642,1563
1175,11416,3373,2688,-944,1178,-5526,478,58,5448
1176,12372,3696,2690,-5918,2742,-2174,42,-644,4620
1177,12372,3487,2690,-2590,682,410,0,665,5309
1178,13245,3425,2690,-6180,-3172,-3398,433,-1102,4213
1179,13245,3436,2689,-4072,1016,-7486,491,884,6176
1180,13939,3487,2687,-6258,-708,-4686,517,1596,5428
1181,13939,3402,2688,-266,2294,-506,-177,496,5601
1182,14560,3447,2690,230,-1014,-300,375,-199,4600
1183,15349,3598,2693,-2756,1298,-3478,-319,-459,4921
1184,15349,3481,2689,-4532,2116,-4630,-168,-216,5044
1185,16916,3575,2687,-2916,-884,1562,353,-1853,4143
1186,16916,3490,2690,638,2096,-5656,517,744,3125
1187,16928,3615,2688,106,-4322,-606,368,-294,1731
1188,16928,3664,2692,-3178,5260,-4596,695,602,1125
1189,16964,3742,2690,-74,-1574,-3272,717,1043,1681
1190,16964,3567,2689,-560,1108,-3894,-210,606,1269
1191,16964,3191,2689,-852,1496,-5146,-1410,90,255
1192,16988,3918,2690,1362,2954,-1968,-516,150,476
1193,16988,3637,2688,-284,-812,1630,478,-1864,-503
1194,17047,3753,2689,348,2030,-3782,1689,-231,1236
1195,17143,3611,2689,-304,-1238,-4810,785,487,1042
1196,17143,3334,2687,580,302,-4076,217,-336,541
1197,17203,3611,2685,-1574,-472,-3162,-122,388,1581
1198,17203,3703,2688,1320,-1146,-4150,-35,115,673
1199,17358,3674,2690,-802,3256,-1496,-500,420,2675
1200,17358,3726,2688,-1014,-1356,-1492,568,-31,1667
1201,18076,3695,2690,1872,1930,-4784,233,979,585
1202,18865,3713,2687,2210,-1336,-2910,-952,-1152,4590
1203,18865,3487,2689,2232,-1340,-2706,401,-507,-768
1204,19367,4066,2691,1826,-1202,-2432,210,-841,-2725
1205,19367,3341,2691,3434,-1648,-1536,-374,290,-3076
1206,19797,3586,2691,2794,602,-1582,417,1091,-3016
1207,19797,3781,2690,3362,-1292,-3812,591,-1060,-1528
1208,20013,3499,2689,3380,-1354,-4746,313,1389,-1799
1209,20037,3572,2692,2628,-528,-8096,216,969,-4331
1210,20037,3405,2690,3318,1498,-5146,284,690,-3748
1211,20049,3539,2689,2260,-784,-884,116,-1012,-4372
1212,20049,3321,2690,1194,-2300,-1212,110,-342,-4107
1213,20192,3541,2691,3570,476,-10986,-961,424,-2153
1214,20192,3604,2689,2072,-2174,-3068,-1456,-2118,-3756
1215,20611,3669,2689,2616,2172,-5480,705,897,-5327
1216,20838,3514,2690,4020,2382,-7506,-593,1192,-4410
1217,20838,3449,2690,3012,1150,-3928,371,1077,-5121
1218,20981,3340,2690,3762,740,-2792,320,-136,-5024
1219,20981,3302,2691,1698,-1586,-2764,-232,65,-5595
1220,21113,3484,2691,2510,346,-4250,-1166,-212,-2020
1221,21268,3509,2690,2706,-2902,-1854,262,945,-6078
1222,21268,3630,2690,2256,-200,-6154,-577,-246,-5333
1223,21519,3611,2689,1984,564,-4418,-45,830,-5403
1224,21519,3656,2689,1446,-1356,-1458,449,-1200,-5106
1225,21555,3471,2689,-454,-1164,-8362,217,20,-3473
1226,21555,3345,2689,4622,940,-3160,-22,998,-4797
1227,21448,3481,2689,602,2194,-8942,159,665,-5498
1228,21184,3566,2690,976,-1744,-3684,665,508,-4249
1229,21184,3621,2690,4054,2322,-3294,368,-632,-4210
1230,20634,3549,2688,1926,-1390,-5606,391,-231,-5041
1231,20634,3535,2689,3088,-86,-7204,297,842,-3311
1232,20013,3401,2689,1202,-36,-3918,310,166,-5056
1233,20013,3328,2689,1778,672,-4906,-152,655,-4399
1234,19594,3472,2689,3950,-512,-3698,-142,7,-3780
1235,19188,3447,2690,2114,160,1586,740,-1483,-11900
1236,19188,3613,2690,7776,1520,210,-58,-1349,-5006
1237,18769,3545,2689,1486,1930,-3316,-678,-815,-2946
1238,18769,3571,2689,4318,664,-7604,-316,1544,-2704
1239,18255,3488,2687,2392,-2268,-296,269,-1418,-2757
1240,18255,3381,2687,2050,2034,-3674,249,1211,-3901
1241,17860,3505,2688,2220,214,-4086,126,683,-5254
1242,17143,3551,2689,2040,2590,-5418,597,-745,-4086
1243,17143,3618,2689,-218,-546,238,501,-1079,-3008
1244,16976,3600,2689,1304,3856,-6082,-174,-549,-2863
1245,16976,3605,2688,-72,-1106,754,834,-211,-1106
1246,16497,3508,2686,2974,926,-5850,517,135,-4531
1247,15529,3324,2688,-336,3214,-5388,-86,1065,-523
1248,15529,3818,2688,2626,-2262,-2298,55,-428,853
1249,14919,3387,2687,1636,3726,-8172,7,766,611
1250,14919,3581,2689,5312,-1466,-274,575,-567,1523
1251,14118,3375,2691,-4330,1468,-2458,536,-1911,-1242
1252,14118,3452,2688,-4218,-2612,-4148,65,-720,1407
1253,13723,3556,2687,-1608,-370,-6852,-32,-1374,3886
1254,13125,3237,2685,-4146,2332,-5408,-1275,-2308,3706
1255,13125,3669,2688,-2534,-260,-3770,-348,385,-1334
1256,12886,3088,2690,-2616,-1652,-3122,32,-616,2477
1257,12886,3974,2687,-1090,-1142,-4878,1108,855,600
1258,12898,3401,2689,-4168,90,-4218,288,-107,2872
1259,12898,3071,2690,-5932,1202,-6926,-726,-710,4679
1260,13030,3855,2688,-4096,462,-5844,78,480,158
1261,13090,3407,2687,-3578,-364,-2766,-288,-28,4829
1262,13090,3625,2688,-1906,-2652,-2854,585,-428,-1290
1263,12898,3338,2692,-3014,-532,-6114,1091,855,1077
1264,12898,3896,2690,-4140,438,-1774,927,-428,4720
1265,12348,3150,2690,-5284,-834,-5038,233,1154,2297
1266,12348,3339,2690,-1912,-892,-5398,885,1249,3921
1267,11978,3942,2690,-3974,552,-9682,-1362,-447,6530
1268,11978,3036,2689,-2706,1312,-1918,-520,1243,5448
1269,11978,3500,2691,-444,-242,-1530,930,-888,2371
1270,12229,3534,2690,-5956,-372,-6206,448,-359,5693
1271,12229,3553,2689,-2872,-1326,2802,116,-291,5192
1272,12683,3505,2688,-3324,418,-4866,-126,45,3904
1273,12683,3474,2688,-4634,1536,-5220,-723,-18,6362
1274,13173,3932,2690,-2322,352,-4328,-161,-12,5793
1275,13950,3140,2690,-3946,50,-4044,-784,-597,6488
1276,13950,3441,2688,-5078,-2006,-738,-229,884,2890
1277,14871,3487,2689,-3064,4374,-6986,-54,-707,6159
1278,14871,3612,2687,-1950,14,-7794,-297,639,6085
1279,15756,3683,2689,-2510,2614,-5360,-1662,659,4449
1280,16306,3534,2692,-1452,-1178,-1608,-929,-907,6400
1281,16306,3515,2691,-796,-2342,-2768,-449,874,3058
1282,16868,3844,2693,-886,-610,-6900,81,-380,4552
1283,16868,3134,2692,130,-1242,-4202,307,506,482
1284,16964,3385,2688,712,3000,-3904,-133,286,7
1285,16964,3522,2690,-2508,-1052,-5740,552,-260,-603
1286,16988,3522,2693,-530,786,-5486,291,1176,-682
1287,17011,3409,2691,666,546,-5090,-396,236,683
1288,17011,3365,2689,168,-1210,-3994,-429,782,741
1289,17023,3491,2688,-212,-1944,-2706,68,-1438,1690
1290,17023,3684,2691,-1054,1074,-4422,465,506,-388
1291,17035,3254,2690,278,3292,-3580,-274,1391,-576
1292,17035,3621,2690,-374,692,-5554,110,84,-390
1293,17047,3556,2688,448,1898,-4150,-574,313,-128
1294,17143,3529,2691,2186,-2156,-474,-58,216,196
1295,17143,3493,2689,-300,-406,-4944,555,140,-40
1296,17286,3432,2687,-10,3648,-996,-9,-505,-208
1297,17286,3694,2689,1204,-900,-2822,710,-104,-3447
1298,17561,3394,2690,-1208,330,-8434,32,998,-229
1299,17561,3520,2689,2386,-3080,-6918,-884,783,-1672
1300,17980,3537,2688,1768,1522,-2162,449,-536,-1236
1301,18745,3503,2690,652,-564,-4236,-387,395,2106
1302,18745,3358,2688,1466,-776,-2504,478,592,-562
1303,19762,3579,2688,4238,48,-3622,168,782,-3432
1304,19762,3614,2689,2616,-1722,-5912,252,-787,-2474
1305,20264,3561,2689,680,968,-7582,-264,814,-2863
1306,20455,3420,2691,2072,960,-1950,-590,-424,-1825
1307,20455,3535,2688,1120,748,-3476,788,979,-2448
1308,20467,3358,2688,5088,1054,-5558,32,298,-2315
1309,20467,3908,2691,2082,1278,-842,123,-314,-3397
1310,20467,3276,2691,1478,-2062,-888,129,597,-5374
1311,20467,3555,2690,5218,2600,-8588,359,-164,-2344
1312,20850,3532,2689,782,-134,-2518,103,429,-3812
1313,21531,3465,2689,3078,-1114,-432,181,-123,-3453
1314,21531,3513,2689,1178,-2862,-3884,591,-22,-2551
1315,22081,3554,2691,5350,2384,-9694,694,-85,-4272
1316,22081,3764,2689,4558,-780,-4472,-491,-663,-3544
1317,22392,3227,2689,3570,314,-5446,-827,-514,2253
1318,22392,3644,2689,3408,-3034,-1812,104,502,-4490
1319,22404,3198,2689,4598,-938,-5584,233,-247,-4941
1320,22141,3499,2689,1462,784,-4698,-249,1080,-5245
1321,22141,3798,2689,3084,-1044,-4296,759,808,-4508
1322,21986,3350,2689,4226,-1192,-2186,-22,-31,-5976
1323,21986,3707,2688,1698,-898,-3688,39,-177,-5044
1324,21806,3366,2689,2720,-484,-2996,695,436,-5321
1325,21806,3263,2689,2608,-452,32,-468,-838,-4685
1326,21663,3448,2691,2458,-1708,-6192,-32,-281,-4779
1327,21340,3532,2689,3666,-1562,-6002,-145,426,-4847
1328,21340,3408,2688,-740,-1052,-1696,494,-206,-5153
1329,21041,3347,2689,4732,298,-5790,759,347,-5486
1330,21041,3446,2690,3876,344,-3982,-51,265,-4982
1331,20730,3679,2690,3064,372,-4630,629,-914,-8725
1332,20455,3614,2690,1074,-3044,-628,478,1442,-5566
1333,20455,3378,2689,3766,-2954,-4254,-435,-970,-6190
1334,20419,3483,2688,3740,356,-6342,-662,763,-6441
1335,20419,3550,2689,4376,2092,-3138,481,703,-6830
1336,20395,3434,2690,4860,-2532,-2164,-303,36,-6258
1337,20395,3853,2688,2492,-232,-5458,-413,-406,-5333
1338,20276,3202,2690,2112,-286,-2532,42,-320,-5419
1339,20192,3668,2691,1930,-356,-4558,49,-711,-8445
1340,20192,3345,2687,5746,-192,-5074,-97,401,-5115
1341,20180,3451,2688,2066,1544,-5044,-6,-453,-5077
1342,20180,3571,2688,4306,-138,-6016,665,1140,-6155
1343,20180,3468,2689,5264,-2672,-1292,3,-669,-4667
1344,20180,3523,2689,-1064,2146,-2356,239,210,-4576
1345,20132,3637,2689,1982,836,-1822,1214,-254,-3400
1346,20037,3599,2688,2814,430,-1616,1204,-1575,-5015
1347,20037,3484,2688,1792,504,-2980,413,692,-6094
1348,20013,3354,2688,5970,2450,-8354,-1236,-234,-2127
1349,20013,3493,2689,444,-660,-3904,190,273,-6745
1350,20025,3623,2689,2872,2726,-1992,-213,2185,-5610
1351,20025,3416,2687,4080,2242,-74,281,-1219,-4337
1352,20049,3548,2688,2010,-328,-7924,1111,-603,-3465
1353,20192,3514,2690,1844,1714,548,1191,483,-3052
1354,20192,3549,2687,3016,-796,-2244,432,-1172,-3025
1355,20419,3437,2690,4430,-2898,-5488,-168,1389,-3503
1356,20419,3482,2689,1930,1314,-6212,-659,-1674,-5218
1357,20455,3680,2688,-24,-848,-260,-181,1528,-3774
1358,20455,3774,2688,2750,-1460,-1574,1369,394,-3465
1359,20419,3041,2689,754,1374,-5134,869,118,-2274
1360,20216,3403,2688,3298,710,-4850,1521,1494,-4110
1361,20216,3564,2688,2192,-1330,-4804,503,-320,-3836
1362,20013,3540,2689,1630,814,-3386,107,363,-2869
1363,20013,3615,2690,2552,-2866,-116,100,-285,-4532
1364,19594,3852,2689,2650,2146,-5396,-788,-127,-4072
1365,19128,3520,2689,3996,136,-2714,191,394,-2386
1366,19128,3528,2688,-2004,-1846,-5726,749,-244,-3851
1367,18673,3506,2688,3572,164,-9484,-10,1724,-2047
1368,18673,3432,2690,1438,-2742,672,756,-885,-10120
1369,18135,3536,2691,2748,-284,-5616,-571,-263,-4458
1370,18135,3496,2691,490,-1570,-1790,-446,-1178,-3170
1371,17801,3409,2689,-590,-1078,-4080,-336,-936,-4552
1372,17454,3705,2689,2790,1770,-5830,642,347,-3335
1373,17454,3016,2687,3428,-2318,-2794,158,-984,-2863
1374,17394,3627,2688,4024,-358,-6158,1317,1922,2191
1375,17394,3434,2688,2906,754,-1574,-174,1086,-3179
1376,17394,3606,2689,628,676,-3690,-239,-1358,-2575
1377,17394,3555,2692,-422,-1708,-3610,-368,-362,-3025
1378,17490,3340,2689,2842,3488,-3704,-881,537,-3031
1379,18183,3746,2688,1168,-120,-2716,417,471,-2893
1380,18183,3175,2688,1112,-2100,-2838,550,1504,836
1381,19307,3614,2688,2438,-1196,-5558,-145,-1161,-2277
1382,19307,3088,2690,2674,-930,-5964,200,677,-3845
1383,20467,3799,2690,3322,-3658,-2532,200,381,-2539
1384,20467,3275,2691,2770,688,-6596,-687,-1759,-2613
1385,21436,3870,2690,1480,3440,-2794,145,13,-1278
1386,21902,3156,2688,2602,1186,-4716,-504,705,-2501
1387,21902,3485,2687,1302,-2272,-2922,300,362,-2619
1388,22141,3483,2690,2254,-322,-3372,-145,439,-3214
1389,22141,3506,2689,1978,226,-1570,91,661,-3285
1390,22320,3403,2690,518,1268,-1468,0,-1200,-4198
1391,22332,3699,2691,928,-2014,-3628,-372,-298,-3529
1392,22332,3781,2688,3096,556,-10172,-852,-536,-3117
1393,22344,3426,2690,5298,-1352,-5906,900,-2226,-3969
1394,22344,3478,2689,2418,-252,-5550,145,273,-3577
1395,22404,3579,2688,3928,-2008,-3666,104,840,-4080
1396,22404,3542,2690,2692,602,-5020,-106,-803,-5018
1397,22392,3405,2688,954,3062,-4904,-323,702,-3862
1398,22320,3547,2690,2080,-2666,-1768,565,-70,-5192
1399,22320,3412,2689,1224,114,-6568,200,954,-3730
1400,22141,3447,2690,3730,-2420,-4190,242,-686,-4590
1401,22141,3275,2689,2842,-2230,-8174,406,1283,-5666
1402,21782,3448,2690,2280,-802,-6432,-58,1109,-4116
1403,21782,3394,2689,2622,2108,-5860,-284,-520,-3364
1404,21412,3428,2689,1794,-1810,-578,981,613,-6214
1405,20981,3446,2689,1550,82,-5800,-313,-1683,-2846
1406,20981,3842,2689,942,2890,-7384,-187,963,-3403
1407,20766,3323,2690,4706,-1404,-2880,798,442,-5572
1408,20766,3570,2689,178,-1410,-5302,788,167,-4849
1409,20694,3505,2689,4346,668,774,168,474,-4923
1410,20694,3556,2689,3414,-1788,-3204,466,-507,-4970
1411,20634,3622,2689,-546,-2276,-364,568,-803,-6008
1412,20419,3639,2689,3942,408,-4250,403,175,-4611
1413,20419,3652,2690,990,-2032,-1738,520,-1327,-4505
1414,20037,3575,2688,4448,-1236,-3890,597,1493,-3745
1415,20037,3478,2690,4802,86,-10134,155,-212,-4812
1416,19606,3476,2690,5394,-132,-1588,-210,2223,-6256
1417,19606,3521,2688,1268,-2270,-3958,-355,-453,-5743
1418,19224,3545,2689,442,2124,-714,-788,185,-4452
1419,19056,3657,2690,1596,-88,1188,1305,-651,-8431
1420,19056,3578,2689,240,2792,-6134,503,216,-3954
1421,18781,3887,2688,3202,1370,-3284,51,2369,-3597
1422,18781,3091,2688,1774,648,-5974,1305,-136,-5121
1423,18590,3460,2690,1866,-2310,-3198,-9,1522,-3650
1424,18279,3404,2688,752,-3432,-1788,-336,953,-4328
1425,18279,3511,2689,1868,2718,-2340,19,-1902,-4266
1426,18219,3572,2689,1612,1382,-9152,-226,474,-1422
1427,18219,3556,2688,3790,2282,-6834,691,-136,-1478
1428,18219,3880,2688,-570,748,-2962,359,994,-2115
1429,18219,3147,2688,3424,310,-1728,359,433,-2103
1430,18207,3513,2689,620,320,-1966,158,-12,-3983
1431,18219,3477,2689,2250,-146,-3570,-132,-263,-3447
1432,18219,3431,2688,1888,2608,204,-284,-266,-2589
1433,18183,3400,2688,-418,-2796,-400,175,-387,-2026
1434,18183,3427,2689,2352,-1262,-1284,707,388,-3597
1435,18100,3313,2688,2686,2406,-8146,193,-1143,-1372
1436,18100,3503,2687,1464,1808,-1670,-133,362,-2916
1437,17932,3496,2689,446,696,-2366,530,-599,-3606
1438,17681,3524,2691,2066,2144,-5548,-626,68,-5333
1439,17681,3712,2690,2586,-820,-1096,187,-3,-3438
1440,17370,3543,2687,-348,-1654,-1596,-97,632,-3913
1441,17370,3450,2687,2850,946,-3640,-959,-482,-1116
1442,17143,3330,2689,1184,2684,-6916,507,-89,-3247
1443,17143,3487,2689,1224,-606,-564,-320,521,-2421
1444,17119,3550,2688,878,-642,-1356,481,-980,-3199
1445,17119,3483,2690,1330,1354,-4422,-71,366,-1251
1446,17119,3578,2688,3560,-3190,1006,190,-327,-2613
1447,17047,3593,2688,-868,2814,-3406,103,-197,-2645
1448,17047,3546,2689,4724,-880,-5208,436,753,-3597
1449,17035,3430,2688,1306,-1970,-390,126,-1031,-2934
1450,17035,3539,2690,524,2550,-8056,-414,1379,-3303
1451,17035,3587,2689,2614,1224,286,587,83,-1605
1452,17107,3129,2688,722,392,-2346,800,-975,-3462
1453,17107,3863,2690,1040,-3310,-2016,-42,-152,-847
1454,17119,3523,2689,716,1386,-9470,-26,270,-538
1455,17119,3442,2689,2254,-466,-1568,-784,471,-1567
1456,16976,3394,2688,736,-782,-5120,-155,-1140,-1216
1457,16617,3625,2689,-412,488,-2828,-481,-177,-220
1458,16617,3246,2691,1684,-1478,-2178,1140,-320,-7729
1459,15337,3556,2687,-2488,-2826,-5714,465,-707,-1720
1460,15337,3479,2688,-334,1310,-4398,736,1722,-618
1461,14058,3478,2689,-160,618,-4402,168,-523,-1225
1462,14058,3701,2689,1690,-1276,-1692,-249,858,246
1463,12886,3112,2691,-3482,1618,-4616,-500,-905,202
1464,11870,3565,2691,-3826,-1968,-1726,-216,740,-2353
1465,11870,3510,2686,-2428,-1388,-1912,246,-313,1508
1466,10842,3581,2686,-1676,-436,-5622,87,-2146,3264
1467,10842,3397,2689,-174,-1808,-3462,71,86,1074
1468,10500,3554,2688,-2040,526,-330,552,-530,1805
1469,10500,3836,2687,-2492,-1272,-2848,-258,588,4213
1470,10500,3113,2689,-1876,20,-3338,-678,750,3904
1471,10500,3580,2687,-1560,-1854,634,627,388,6989
1472,10500,3524,2687,-2898,2772,-7710,200,-1511,5206
1473,10500,3641,2691,-5130,1376,-2684,1317,1459,4366
1474,10500,3382,2690,-5566,-1216,-3906,572,-1266,4549
1475,10500,3385,2690,-4204,-2116,-5146,-959,1875,8298
1476,10500,3995,2686,-434,-1000,-8174,-1495,-463,6580
1477,10500,3298,2688,-2286,-2388,-2542,-323,813,6073
1478,10500,3445,2689,-66,672,808,239,-975,8445
1479,10500,3539,2690,-5738,-972,-286,1237,-1391,3789
1480,10500,3528,2691,-3094,-1352,-3058,42,401,6049
1481,10500,3393,2688,-1876,-1310,-10246,-959,-727,13302
1482,10500,3453,2688,-2234,-1830,-3814,123,2293,4578
1483,10698,3372,2688,-2016,1576,-5098,-626,-1187,6314
1484,10698,3497,2689,-5288,-852,1636,-407,-463,7614
1485,10686,3608,2691,-3152,-896,-4150,1292,-120,2769
1486,10686,3445,2690,-7928,-234,-5088,407,-1994,6173
1487,10500,3530,2690,-5714,-1286,-4148,503,-127,4988
1488,10500,3576,2687,-842,-2384,-7362,-355,1328,6945
1489,10500,3553,2688,-1296,2570,-4174,-7,1109,7820
1490,10500,3583,2691,-2356,-1882,-3200,403,2125,6491
1491,10500,3598,2690,-2420,-1216,-3854,-122,-85,8575
1492,10500,3375,2690,-5274,874,-4478,-248,-863,8616
1493,10500,3459,2689,-2090,-986,-80,997,-308,5248
1494,10500,3339,2690,-7992,1920,-5198,-1184,-1641,4918
1495,10500,3389,2691,-2788,-4440,-5822,81,-101,6880
1496,10500,3611,2687,-3106,2930,-7540,-32,617,7178
1497,10500,3982,2689,424,-2266,-3704,-733,1033,6329
1498,10500,3360,2692,-1186,-1080,-3518,549,-168,5849
1499,10997,3530,2689,-1628,-628,-6550,-29,-917,5012
1500,10997,3533,2688,-5240,2146,-4438,1595,108,4894
1501,11870,3442,2688,-3030,-3090,-6916,-91,-679,7225
1502,11870,3347,2688,-3258,3870,-1920,-872,-990,5454
1503,13030,3425,2690,-3526,-2912,-1158,55,137,6606
1504,14453,3923,2689,-2200,-816,-4148,-313,489,7782
1505,14453,3315,2689,-5208,-1700,-640,371,1861,7190
1506,17251,3608,2689,-980,182,-2518,184,3116,8242
1507,17251,3822,2689,-2134,556,1066,481,1074,5457
1508,16964,3432,2690,-1868,1462,-6334,-652,-1333,3394
1509,17000,3389,2693,-292,-110,-6394,-1240,-111,-231
1510,17000,3380,2693,-3732,988,-8300,-258,458,1879
1511,17011,3409,2688,-2930,2364,1236,-467,-497,2165
1512,17011,3479,2687,98,-3136,930,-358,-355,1870
1513,17011,3702,2690,-2964,516,3376,-4,791,305
1514,17011,3604,2688,-470,2892,-2826,668,356,302
1515,17023,3535,2692,-3120,274,-5866,333,-1127,4440
1516,17035,3373,2690,-1846,1610,-10098,406,-41,-977
1517,17035,3369,2688,-2264,474,-7448,374,1058,-1484
1518,17023,3675,2687,-1956,2710,1014,785,-291,-172
1519,17023,3306,2688,-1160,-568,-2074,519,566,-181
1520,17035,3271,2688,-1764,3426,166,536,-50,113
1521,17035,3905,2688,-482,-270,-2322,475,-158,688
1522,17023,3113,2690,882,-1734,-6774,-432,1166,146
1523,16988,3470,2689,-192,5132,-3828,-765,-469,-1673
1524,16988,3954,2688,204,-38,-2742,-520,1065,-753
1525,16976,3498,2688,-648,-2926,802,636,-79,-612
1526,16976,3121,2689,676,3640,-6442,122,-381,-158
1527,16976,3516,2689,2058,1012,214,-26,-704,-1764
1528,16976,3481,2688,-104,-632,-10370,-158,3157,1425
1529,16964,3603,2688,2666,-8,-446,-420,-1575,-1794
1530,16964,3492,2686,-1754,890,-6192,133,928,-1679
1531,16964,3427,2688,1382,-1554,-1006,-207,527,-1157
1532,16904,3896,2692,148,-1360,-5648,1798,-2705,-3096
1533,16904,3025,2690,-1430,3256,-2104,-503,1525,-544
1534,16772,3574,2687,4372,-176,-82,507,-1120,-78
1535,16772,3355,2690,-304,-1442,-3626,-539,-123,261
1536,16521,3558,2690,2006,1740,-2590,-907,687,-122
1537,15720,3445,2686,1580,664,-4538,-762,-1892,-1086
1538,15720,3633,2689,-2272,556,-8342,423,254,1313
1539,13795,3947,2689,-2760,-1084,-9578,-823,1179,1776
1540,13795,3076,2689,2380,1266,-3818,-456,502,140
1541,11643,3533,2689,-704,332,-502,-500,-599,1446
1542,10500,3420,2688,-2618,-1302,-6774,472,-285,1684
1543,10500,3495,2694,-720,766,2366,888,-794,2135
1544,10500,3483,2691,-180,-3202,-11150,3038,-282,-8879
1545,10500,3615,2684,-2958,-1430,858,671,245,2919
1546,10500,3680,2686,-1362,282,-4926,-684,-600,5141
1547,10500,3622,2689,-2232,2328,-2574,-649,1753,3008
1548,10500,3576,2688,-840,-690,-7512,-646,-831,1528
1549,10500,3412,2688,-3160,-228,-8410,6,1147,3762
1550,10500,3490,2690,604,3814,-8032,-562,273,4384
1551,10500,3459,2689,-2440,-618,-3468,-217,188,2253
1552,10500,3514,2687,1592,-610,-584,29,401,4422
1553,10500,3726,2689,100,-454,-5576,707,-273,5775
1554,10500,2965,2690,-2660,-2434,-6558,745,134,2312
1555,10500,3453,2691,-5938,-658,-9870,329,-1057,6070
1556,10500,3431,2689,-258,-2872,-7418,-468,-571,4735
1557,10500,3230,2687,-382,114,-5934,-284,270,5312
1558,10500,3626,2688,-1908,-278,-3160,-307,-641,7219
1559,10500,3842,2690,-424,-2278,-252,947,-53,5107
1560,10500,3922,2691,-2760,-2950,-5962,959,871,4343
1561,10500,3114,2690,-3938,-604,-8686,-1343,-965,12987
1562,10500,3529,2689,-8366,1438,2380,720,1239,6771
1563,10500,3514,2687,-820,-792,-9072,-639,703,5834
1564,10500,3475,2686,-202,338,-750,-1227,156,6235
1565,10500,3735,2691,-1494,1208,-1570,-230,1115,9176
1566,10500,3571,2694,-3306,-376,-3680,1359,-89,4705
1567,10500,3449,2691,-4098,-1182,-1736,549,-1083,4714
1568,10500,3527,2687,-3994,-2646,-7738,-1456,-2127,8935
1569,10500,3550,2685,-2322,-6660,-7722,-13,442,6574
1570,10500,3444,2683,-4564,-360,-7482,-452,92,5987
1571,10500,3353,2688,-4194,1136,472,-536,737,7322
1572,10500,3533,2693,-1280,-312,-6706,930,1779,5295
1573,10500,3715,2692,-1678,-1802,-972,191,1125,5424
1574,10500,3615,2689,-5804,-1866,-5708,-106,83,7275
1575,10500,3234,2689,-4314,286,-3642,430,976,6957
1576,10500,3356,2685,-1368,-834,-4022,-436,-1673,6886
1577,10500,3663,2686,-7076,2832,-2244,-1353,-2213,9497
1578,10500,3621,2689,100,202,-3152,139,-91,4685
1579,10500,3625,2691,-2366,-2158,-3716,452,-520,7744
1580,10500,3824,2690,-4348,-530,-4550,827,928,6757
1581,10500,3732,2691,-4244,-982,-6102,-903,348,5837
1582,10500,3445,2687,-6376,4456,-9332,-471,-1508,8955
1583,10500,3590,2687,-1666,-2036,-4854,-775,-733,7355
1584,10500,3746,2688,-230,-38,-6244,494,-1235,4316
1585,10500,3492,2690,-3232,3022,-420,575,-260,4720
1586,10500,3259,2690,520,-882,-5602,762,439,5810
1587,10500,3947,2691,-4226,-1158,1332,742,356,3429
1588,10500,3650,2688,-3686,-1276,-9046,-451,306,7069
1589,10500,3220,2689,-1228,1408,-6078,-358,1058,3072
1590,10500,3935,2686,-2832,472,-2788,142,-733,5634
1591,10500,2801,2686,278,-1380,-588,1237,-479,3453
1592,10500,3536,2692,-152,2694,-6030,1175,-1429,3270
1593,10500,3603,2692,-4668,-302,-4728,1766,597,5177
1594,10500,3363,2688,-1592,-1946,-5296,1443,744,6636
1595,10500,3169,2686,-4630,994,-3898,575,-1285,3181
1596,10500,3637,2686,-8058,-1520,-7020,-336,2008,4838
1597,10500,3648,2688,-3624,-284,-5470,-723,502,7493
1598,10500,3357,2686,374,-3598,-7636,-217,1347,6759
1599,10500,3266,2686,-1788,-890,1636,904,362,2689
1600,10500,3801,2691,-1772,-2848,-722,939,-775,4744
1601,10638,3487,2693,-3036,230,-3800,1195,569,4021
1602,10638,3621,2690,-5960,288,-12192,-381,-1778,5940
1603,10686,3518,2687,-2572,272,-2732,-568,435,5404
1604,10686,3403,2683,-2144,-1110,-2772,-539,-1304,6724
1605,10650,3453,2685,-3764,-1698,-2820,-339,-987,7269
1606,10650,3276,2690,-3726,-922,2964,145,-9,6040
1607,10519,3627,2690,-3326,1196,-626,349,1045,6329
1608,10500,3708,2688,788,-1020,-2862,629,99,4481
1609,10500,3539,2693,-6582,2376,-8910,765,-1644,5984
1610,10614,3261,2691,-5788,-4696,1568,643,-82,3296
1611,10614,3412,2684,-1680,2340,-5256,-513,-142,6506
1612,10973,3689,2684,-1448,-4038,-986,-200,900,5118
1613,10973,3625,2689,-2920,2106,-3320,1453,2707,7240
1614,11870,3809,2690,-1650,2852,-6250,-307,709,6353
1615,12934,3796,2689,-4810,2678,-7204,-239,197,6594
1616,12934,3412,2689,-1024,402,-7144,-581,-37,3918
1617,14130,3338,2687,1312,-3120,-4204,290,-1940,5159
1618,14130,3649,2687,-6484,-2014,-6718,-216,267,5796
1619,15409,3145,2687,-532,1110,-6594,-175,1099,6565
1620,15409,3542,2685,-360,-594,-1176,391,982,6167
1621,16509,3562,2688,-4522,1800,-200,300,1727,703
1622,16976,3715,2691,-324,3918,-4532,-106,496,4372
1623,16976,3321,2689,-2362,3840,-1094,540,-605,2766
1624,16988,3377,2691,-1504,1264,-7516,-113,-495,5404
1625,16988,3064,2690,-2080,1908,174,-303,-618,1289
1626,17119,3543,2687,-1022,2770,-3726,-317,254,2492
1627,17215,3740,2688,-1578,1624,-2906,-113,1039,1970
1628,17215,3845,2688,-222,2462,448,378,-765,1628
1629,17466,3649,2689,-142,902,-7884,110,-1412,1858
1630,17466,3448,2689,-3734,-1346,-7106,-367,513,1296
1631,17896,3452,2688,-1578,2762,-7904,-203,1401,-2012
1632,17896,3907,2686,-572,-1832,-4698,-536,-657,-308
1633,18219,3211,2688,-2118,2726,-7240,126,2945,-6804
1634,18279,3552,2689,3478,-764,18,475,756,-491
1635,18279,3537,2688,-1624,-1260,-3036,-297,-326,181
1636,18243,3515,2690,1366,-160,-6786,-591,1842,-585
1637,18243,3497,2692,604,2444,-5162,-87,-1003,-1275
1638,18183,3519,2688,-1420,894,-5422,-3748,74,5345
1639,18183,3835,2687,1702,310,-4366,597,-590,-1154
1640,18088,3135,2688,78,1284,-4988,1024,490,-1396
1641,18195,3505,2689,1336,-502,-686,-571,623,72
1642,18195,3569,2687,1206,-998,-8462,75,522,-381
1643,18673,3456,2690,-628,834,1630,397,476,-1561
1644,18673,3556,2689,412,1318,-4126,126,-409,-2318
1645,19032,3560,2688,-552,2986,-3612,278,188,-1947
1646,19032,3577,2689,628,-1784,-1438,508,443,-891
1647,19176,3956,2688,-808,1746,-4568,-636,1534,588
1648,19176,3350,2688,3528,762,-3900,-626,1008,-2904
1649,19176,3676,2688,2070,-48,-5238,-194,45,-3494
1650,19068,3569,2688,1604,-1152,-698,-38,163,-3497
1651,19068,3331,2688,1788,-622,-4492,284,-1131,-2530
1652,18865,3791,2690,214,-640,-6060,136,267,-2925
1653,18865,3291,2690,2010,-1448,-4776,-248,1382,-2905
1654,18638,3521,2690,-170,1210,-5892,207,-936,-2919
1655,18267,3831,2691,2520,-2174,-3272,126,1277,-2878
1656,18267,3370,2689,2380,-322,-4630,-294,458,-3468
1657,17980,3501,2689,1682,2024,-7772,698,-155,-3485
1658,17980,3602,2689,2014,-1084,-3648,187,432,-5457
1659,17789,3467,2689,1492,3034,-5850,-3,-619,-2572
1660,17848,3564,2690,1710,-118,-5312,-174,-243,-3196
1661,17848,3535,2689,2672,2004,-4928,158,140,-1973
1662,17860,3660,2689,1246,-188,-2912,-216,499,-3314
1663,17860,3588,2689,2164,1150,-6752,-187,871,-1587
1664,17836,3609,2691,4122,3284,-6748,-310,792,-2955
1665,17836,3525,2689,996,1770,-2920,52,5,-4764
1666,17777,3481,2689,-478,-1646,774,133,-603,-3391
1667,17777,3604,2688,3690,916,-3456,275,-126,-2975
1668,17777,3418,2689,1714,670,-3092,485,-370,-2061
1669,17573,3640,2690,974,-1542,-3752,394,1039,-3217
1670,17573,3136,2689,-58,966,-8770,-175,248,-1584
1671,17394,3468,2689,2446,-738,-5038,-620,-1194,-538
1672,17394,3480,2689,2446,1526,-4624,-168,-254,-3093
1673,17143,3587,2688,374,-2114,242,103,-184,-2321
1674,17143,3572,2689,312,2314,-6428,191,-822,-329
1675,17143,3491,2689,-988,698,-174,878,899,-954
1676,17131,3628,2689,2578,2292,-6006,-346,-315,-750
1677,17131,3572,2687,-222,1886,-1204,-317,92,-1151
1678,17155,3689,2689,794,-386,-4112,49,-831,-290
1679,17155,3497,2688,2974,3560,-4870,-678,382,-2009
1680,17358,3536,2688,3372,-464,-3964,656,792,258
1681,17382,3399,2690,28,-1718,-5018,975,-1019,-1018
1682,17382,3531,2689,278,-876,-4556,123,646,-841
1683,17346,3560,2692,1778,526,-4254,-475,-1464,-273
1684,17346,3143,2690,818,-2798,-1212,214,-1774,-1534
1685,17263,3745,2690,1446,404,-2352,236,32,-1820
1686,17263,3337,2690,314,-966,-2884,87,280,688
1687,17143,3561,2690,-928,-1386,-3714,-1159,1064,-11472
1688,17143,3597,2690,-10,-1876,-4914,-898,54,-1089
1689,17131,3447,2690,-530,638,-4216,-1259,1427,-2436
1690,17466,3581,2689,936,2526,-4240,158,1109,-2790
1691,17466,3172,2689,988,936,1330,988,-308,-2684
1692,17585,3477,2690,1302,-406,-5622,462,-1028,-3211
1693,17502,3441,2690,520,-1494,-3352,249,868,-1852
1694,17502,3447,2690,422,-236,-5472,-959,-101,-3700
1695,17286,3475,2689,-846,2524,-4628,-569,-1185,-1740
1696,17286,3510,2688,1100,-1122,-3306,-394,801,-576
1697,17286,3930,2689,2412,1874,-3478,797,1086,-1844
1698,17275,3214,2688,1788,200,-4440,840,461,-2477
1699,16342,3544,2689,4056,-1572,-5008,294,-298,-2645
1700,15337,3434,2691,1918,712,-4564,-152,-1069,-1785
1701,15337,3618,2689,1752,-1900,-694,87,-790,-694
1702,14285,3615,2689,-628,830,-1300,410,715,-951
1703,14285,3638,2689,-1254,16,-5188,104,439,-1623
1704,13281,3554,2688,524,-30,-4844,-271,518,66
1705,13281,3926,2687,-3264,-1158,-1764,120,-1238,2227
1706,12683,3150,2687,-1702,1496,-6608,-555,-196,1286
1707,12456,3650,2688,-1954,1036,-3810,-507,-997,1280
1708,12456,3416,2687,-2948,546,-926,284,83,1563
1709,12480,3502,2689,-1008,-552,-3174,-888,-1635,7072
1710,12480,3426,2688,-3454,2294,-7864,-1001,-1079,3942
1711,12073,3705,2687,-2130,820,-1834,-22,-250,2324
1712,12073,3798,2688,-1272,-2090,-3096,623,-329,3120
1713,10746,3029,2690,-1006,3488,-6122,-342,820,4169
1714,10500,3582,2690,-3302,26,-3682,1411,306,835
1715,10500,3405,2689,-1190,1476,-5974,-64,-215,2716
1716,10500,3486,2690,-758,-3308,-4996,-48,328,4655
1717,10500,3476,2687,-2296,-2730,-6768,165,-1943,3108
1718,10500,3630,2687,980,-3022,1036,-1443,-1159,5545
1719,10500,3268,2689,-1582,716,-3112,120,-568,5227
1720,10500,3793,2689,68,-2918,1570,817,-12,4077
1721,10500,3541,2690,-1584,-442,-5592,-277,-867,4372
1722,10500,3070,2688,-1756,-476,-6390,607,-383,3594
1723,10500,3512,2688,-1892,-3844,-5806,-726,150,4175
1724,10500,3365,2685,308,-3310,-8514,-662,1029,6854
1725,10500,3334,2688,-2460,2318,-2000,84,404,3603
1726,10500,3516,2691,-2936,-1968,-5226,300,-844,5896
1727,10500,3571,2690,-2040,442,-7632,349,991,5975
1728,10500,3481,2689,-3556,2202,-2650,-103,-711,7140
1729,10500,3574,2687,-2220,-3450,-8240,-339,728,2592
1730,10500,3609,2688,-1214,-240,-2932,-277,-505,7935
1731,10500,3505,2690,-4810,5778,-2496,-578,-429,5377
1732,10500,3804,2689,-2074,-1398,-3496,-274,341,4587
1733,10500,3847,2688,-1552,-942,-2126,-13,-752,5919
1734,10500,3377,2691,-6614,832,-4176,978,-720,4637
1735,10500,3450,2690,-4970,1310,-7620,769,982,4679
1736,10500,3602,2688,-3666,1556,-5712,523,-212,5728
1737,10500,3700,2687,-4632,-3392,2056,10,1858,3621
1738,10500,3746,2689,-2708,2880,-3476,-139,-18,5097
1739,10500,3631,2689,-3666,784,-6762,152,-368,2059
1740,10500,3815,2692,-4248,598,-3836,-287,-1444,6530
1741,10500,3659,2689,-5110,-3120,-6650,133,71,6659
1742,10949,3341,2685,1070,1070,-3282,969,-155,5746
1743,10949,3521,2687,532,-1160,-268,1262,413,2530
1744,11643,3685,2692,-2668,538,-4062,213,661,6409
1745,11643,3808,2691,-2850,-4610,-3250,507,105,5091
1746,12241,3702,2686,-4978,1354,-9218,-323,160,7204
1747,13018,3340,2687,-2386,-742,792,-1101,-1323,9553
1748,13018,3675,2687,-1908,1278,-3156,-587,-1908,6158
1749,13783,3529,2690,-8912,558,4882,323,388,5501
1750,13783,3585,2689,-1840,-20,-4556,717,842,7437
1751,14417,3911,2688,870,-4030,-3626,1482,938,3812
1752,14417,3745,2687,-6000,-858,2174,966,1836,5545
1753,15110,3492,2690,-7046,-1298,154,1005,-15,4818
1754,15110,3435,2688,-1880,-2766,1432,-42,-867,5707
1755,15110,3422,2689,-306,2326,-5942,-426,-946,3671
1756,15696,3536,2689,-3402,2586,-526,710,972,1192
1757,15696,3587,2689,-1064,-2100,-1492,510,-111,3099
1758,15768,3782,2689,-2200,1894,-5358,-610,426,3347
1759,15983,3229,2690,-4450,3542,-1708,-174,-701,2336
1760,15983,3539,2688,-4942,-1298,372,16,-240,1752
1761,16426,3432,2688,-1376,3244,-4012,727,-860,3252
1762,16426,3612,2689,-2712,-1048,-5390,326,1122,1107
1763,16892,3707,2690,-1890,3316,-3108,527,141,2147
1764,16892,3701,2688,-2086,-1166,-5776,-1120,160,1708
1765,16976,3578,2689,-2642,234,-6396,-652,547,2990
1766,17047,3461,2688,-520,2148,-1812,39,127,2144
1767,17047,3654,2687,-1450,-2150,456,246,-2121,-52
1768,17107,3595,2690,-324,-624,2166,746,414,788
1769,17107,3466,2689,-1068,-24,-2060,323,506,2483
1770,17215,3520,2689,-1474,-176,-8606,319,-266,1787
1771,17215,3525,2689,-2136,3058,-4824,-65,791,-87
1772,17454,3480,2689,-364,616,674,-245,-34,6701
1773,17454,3755,2686,1252,1536,-4376,691,150,-485
1774,17466,3107,2689,-2114,3200,-6136,-484,750,3120
1775,18219,3332,2691,-2848,-240,-3988,-116,89,1823
1776,18219,3551,2690,406,624,-2470,265,1439,891
1777,18219,3537,2686,-758,402,-5262,-533,252,-234
1778,18327,3509,2690,-1846,860,-6326,200,-609,550
1779,18327,3455,2691,1326,1736,-6440,268,1347,-685
1780,18255,3470,2689,436,1666,-3936,-526,-599,-1626
1781,18255,3515,2687,-1020,-1372,-5072,9,254,-1425
1782,18255,3648,2690,1812,1740,-2922,752,-15,-1463
1783,18255,3515,2689,-1716,-160,-1830,-416,817,-66
1784,17478,3260,2689,1190,-102,-3528,304,280,-4446
1785,17143,3856,2689,2206,1828,-6836,46,786,-2960
1786,17143,3392,2689,224,634,-4312,-923,-710,-552
1787,17000,3385,2689,1006,114,-3598,-348,-940,-497
1788,17000,3670,2689,2416,2470,-3520,326,-101,-1808
1789,16964,3267,2689,1060,892,-2554,-262,-1006,-2215
1790,16964,3453,2689,-502,-2084,-666,-403,-94,2813
1791,16964,3435,2689,1552,2102,-8086,-494,461,-2433
1792,16964,3399,2689,1296,2758,-4280,565,-688,-6421
1793,16964,4113,2691,2286,176,-6974,949,423,-1767
1794,16904,3012,2688,4438,-506,-1998,717,-952,-2489
1795,16904,3466,2690,2042,-884,-2378,-84,-285,-1961
1796,16868,3566,2688,584,494,-7126,-283,-1091,-1177
1797,16868,3469,2688,-556,-668,-2646,-1117,-739,626
1798,16772,3546,2690,74,-182,-2746,120,-82,-25
1799,16617,3412,2690,52,-1876,-4472,107,261,-1738
1800,16617,3851,2689,4382,-1404,-4536,-290,-1006,373
1801,16270,3390,2688,1096,-1512,-5586,27,957,-2418
1802,16270,3487,2689,-1298,-2072,-1828,-61,-964,-2904
1803,16163,3396,2688,-1454,48,-4918,-594,45,494
1804,16163,3465,2689,2540,1086,-2372,436,-1330,1451
1805,15947,3533,2689,1726,-168,-5098,191,-1720,-2631
1806,15756,3354,2689,-1368,-858,-3986,300,-270,-912
1807,15756,3812,2689,1466,2254,-3748,336,-49,-496
1808,15230,3344,2690,-470,-1888,-8056,-300,1318,-308
1809,15230,3514,2692,-1760,-1416,-4696,436,29,-396
1810,14429,3366,2691,-2448,-1598,-2404,-6,439,-556
1811,13544,3517,2688,702,-1026,480,113,-1060,-520
1812,13544,3795,2688,572,574,-7212,-345,-437,-66
1813,13006,3278,2690,-1760,-1684,-3066,100,-1111,1864
1814,13006,3273,2690,-3440,1396,-5880,733,667,936
1815,12779,3419,2689,-1790,1044,-856,-159,-520,2123
1816,12779,3537,2687,-2474,1230,-4950,255,3,3688
1817,12695,3356,2688,-4838,974,-5382,-103,-329,1395
1818,12492,3656,2690,-3050,730,-814,-170,1399,3347
1819,12492,3539,2689,-3508,574,-4770,1137,592,441
1820,12265,3723,2688,-1704,-374,-2886,16,-511,1230
1821,12265,3271,2689,-2404,566,-3866,549,804,1616
1822,12253,3473,2691,-5744,1360,-5202,-54,-666,4178
1823,12253,3513,2688,-3694,76,-4990,-161,29,4920
1824,12253,3349,2687,-2128,-1846,-6846,-820,613,7255
1825,12265,3446,2688,314,-1710,-5188,-997,-358,4464
1826,12265,3461,2689,-2510,3300,-1622,-533,407,4688
1827,12253,3839,2691,204,-1728,-230,756,-740,4272
1828,12253,3167,2691,-4684,420,-7068,222,-609,3756
1829,12085,3528,2691,-3294,4,-1404,-119,-853,4060
1830,12085,3484,2687,-2690,-1364,-1474,-629,375,5513
1831,11870,3541,2687,-1716,3184,-7458,-400,430,4146
1832,11750,3584,2689,-4452,4856,-5510,-1143,467,4820
1833,11750,3568,2691,-1444,-5396,-1682,420,38,4181
1834,11810,3539,2689,-2250,2718,-7120,-520,239,7888
1835,11810,3915,2689,-2472,-1602,-1288,110,16,3323
1836,11966,3354,2689,-4220,4310,-4460,126,-844,4929
1837,12193,3659,2687,-3556,-2338,-950,-749,137,7234
1838,12193,3655,2688,-3130,-604,-1282,123,-342,4042
1839,12468,3649,2689,-2046,-3024,-3822,-268,128,5365
1840,12468,3475,2690,302,-1638,-7146,-259,-257,3226
1841,12838,3469,2691,-2026,3372,-4354,-90,-184,5171
1842,12838,3524,2687,-2672,-1914,-4058,1847,1478,1071
1843,13329,3448,2689,-2836,-1526,-4764,759,65,3987
1844,13329,3432,2690,-4798,-1204,-6418,26,2075,5681
1845,13317,3300,2688,-3188,448,-2624,78,-120,6179
1846,14919,3541,2688,1016,1638,-4410,-284,-1435,8339
1847,14919,3425,2689,-6846,4128,44,-542,-263,2922
1848,15708,3379,2689,-634,2806,-5484,317,-177,2038
1849,15708,3510,2690,-1982,-1710,-7676,-355,-320,4375
1850,16198,3566,2688,-2062,1976,-4806,145,1166,4346
1851,16964,3645,2690,-2824,2826,-5690,165,684,2318
1852,16964,3650,2688,-1772,-664,-1522,-4,169,2032
1853,16964,3469,2689,-1354,-352,-5932,-668,-526,3618
1854,16964,3448,2689,-758,-1858,-6696,-51,-180,4287
1855,16964,3536,2690,-238,3728,-4326,-878,-790,703
1856,16976,3541,2690,-2152,-1792,-372,114,-119,2080
1857,16976,3539,2689,468,400,-2490,543,-803,1201
1858,17047,3377,2691,-836,1138,-4136,507,-1254,308
1859,17047,3123,2690,-1262,1332,-2968,991,684,-305
1860,17143,3394,2688,-782,-70,-4568,-365,198,1395
1861,17143,3745,2690,-3400,1202,-2492,-110,118,-332
1862,17143,3135,2689,-30,-1922,-5304,430,10,-102
1863,17143,3458,2689,-1996,1688,-2932,384,-301,-606
1864,17131,3834,2689,-3576,1052,-3166,1720,108,541
1865,17167,3045,2688,-796,-428,-5336,795,446,361
1866,17167,3495,2689,432,682,-5366,-271,683,-402
1867,17167,3533,2688,-830,3514,-870,-549,239,-1098
1868,17167,3506,2687,378,-154,-3194,191,-126,-1348
1869,17155,3786,2689,-1364,-1988,-4286,36,362,205
1870,17131,3141,2689,1492,-1300,-4690,239,-216,567
1871,17131,3490,2688,-636,220,-368,-61,-654,376
1872,17047,3446,2688,-196,-38,-2730,443,-288,-1416
1873,17047,3553,2690,234,-308,-5644,-320,-299,-293
1874,17047,3424,2688,-512,972,-2736,-542,719,573
1875,17047,3423,2689,1594,-1140,-268,-26,290,211
1876,16892,3560,2688,1274,-174,-7762,-87,-911,-750
1877,16772,3331,2689,-80,212,-7772,-245,433,461
1878,16772,3575,2689,-176,224,-1820,962,-1089,-3792
1879,16760,3427,2688,-1700,982,-5556,107,617,883
1880,16760,3486,2688,1284,-1742,-7386,16,582,296
1881,16808,3490,2690,282,228,-1720,397,23,874
1882,16808,3901,2689,690,1698,-4874,-274,226,682
1883,16964,3643,2690,242,-1048,-5634,-430,-752,414
1884,16964,3238,2691,-340,2736,-6630,-123,283,2256
1885,16964,3453,2688,198,-1196,-3108,-387,652,264
1886,16964,3491,2689,-992,68,-7594,-442,160,-313
1887,16964,3523,2688,1386,2514,478,207,-132,-140
1888,16964,3550,2689,-1554,-946,-2288,-303,131,723
1889,16964,3582,2690,-278,-56,-5474,294,13,-1319
1890,16976,3427,2690,-802,1494,-2334,-235,-523,918
1891,16976,3395,2688,-372,1398,-1044,-465,-311,-1894
1892,16976,3406,2688,-650,-3146,-2470,291,-349,-476
1893,16976,3510,2689,130,-632,-5236,497,299,-1201
1894,16976,3455,2689,520,1408,-4904,7,207,-862
1895,16736,3475,2690,2306,-590,-4804,116,378,78
1896,16342,3894,2691,922,1942,-6998,-148,576,-1254
1897,16342,3254,2688,1962,-280,-2042,23,284,-1007
1898,16163,3481,2690,-82,1744,-4876,91,54,-158
1899,16163,3492,2689,-1666,-594,-1206,423,-523,361
1900,15756,3510,2689,564,310,-3496,-49,-562,331
1901,15756,3591,2689,-634,-916,-6090,446,68,222
1902,14787,3572,2690,-822,640,-7274,-646,-44,1510
1903,13496,3502,2688,-1872,-102,-4234,300,-533,-190
1904,13496,3577,2689,-2348,-170,-4422,-620,750,682
1905,12563,3485,2689,-2592,-756,-3504,-133,-1102,1286
1906,12563,3507,2688,-2772,714,-5134,430,-501,2182
1907,12563,3580,2687,-866,-1216,-4174,-865,1294,715
1908,12551,3432,2689,-2396,670,-5814,-775,359,3173
1909,11894,3587,2689,-1454,38,-3702,-48,903,2094
1910,12049,3344,2690,-3036,-1046,-3106,162,-434,4543
1911,12049,3558,2692,-4050,-1796,-6834,-132,716,3267
1912,12432,3467,2689,-1010,-1634,-4342,-190,-174,4649
1913,12432,3461,2687,-3472,-762,1166,300,-476,2890
1914,12850,3522,2689,-3296,604,746,1369,1128,1280
1915,12850,3544,2691,-1560,-912,-2116,16,-1048,4455
1916,13520,3809,2689,-5414,-214,-5954,1299,1894,1098
1917,14094,3622,2690,-286,-958,-1368,401,455,3553
1918,14094,3630,2688,-3672,840,-9436,382,1110,3129
1919,14692,4006,2690,-552,536,2396,42,96,3114
1920,14692,3189,2688,-820,-3472,-1398,139,-434,3918
1921,15122,3652,2689,-1732,850,-3842,743,665,1687
1922,15828,3526,2691,-4810,726,-5242,288,-545,3777
1923,15828,3592,2690,-5742,1920,-5362,74,-88,5159
1924,16414,3553,2687,-416,1706,-5058,526,-88,3632
1925,16414,3153,2688,-2270,-1946,-4478,94,-104,3441
1926,16976,3823,2691,-3258,188,-388,271,-59,2427
1927,16976,3485,2692,1188,692,-1296,610,1112,2512
1928,16964,3342,2689,470,-1346,-4002,833,-1299,-311
1929,16976,3868,2690,-3456,120,-2940,972,795,-541
1930,16976,3265,2691,-1592,366,-2988,698,-218,-2271
1931,16976,3662,2689,-1414,2122,-4864,-152,-409,228
1932,16976,3673,2691,94,3874,-8654,-826,649,390
1933,16964,3652,2690,478,-110,-842,-762,42,-1145
1934,16964,3733,2689,-406,710,30,432,-546,-119
1935,16964,3749,2691,-1048,-1196,-2038,769,-822,2271
1936,16964,3653,2689,988,938,-1676,2286,249,-2049
1937,16964,3736,2689,-1444,3112,-6102,865,442,-688
1938,16964,3797,2690,-1548,3528,-8134,-633,667,37
1939,16964,3876,2687,-590,-3402,74,184,80,-824
1940,16976,3732,2689,642,-2492,-504,297,-218,-491
1941,16976,3896,2688,1666,608,-1676,-571,-1337,1012
1942,17000,3931,2690,-1064,3246,-3592,1324,1830,-1124
1943,17000,3956,2689,1122,522,-5076,839,131,1490
1944,17000,3926,2689,2144,932,-5866,627,293,-488
1945,16988,3876,2688,1186,3786,-8132,-1243,423,237
1946,16988,3939,2689,298,1584,-5112,-1269,-571,-426
1947,17047,4079,2688,-362,4438,-6658,-384,489,-1331
1948,17047,3972,2691,1390,150,2014,646,1,1590
1949,17334,4052,2690,-448,1444,-5162,288,-984,-140
1950,17573,3960,2688,354,-2954,-5664,820,-285,196
1951,17573,3988,2688,-506,-1592,-6146,126,-653,-1213
1952,18159,3853,2688,-462,482,-5016,-817,1303,1307
1953,18159,4078,2689,-1556,726,-568,-464,1189,-334
1954,18566,4047,2689,-290,2952,-4922,-307,-324,-170
1955,18781,4102,2689,2442,740,-4554,68,-482,-1767
1956,18781,3975,2690,2268,-848,-6862,191,-714,-3137
1957,19020,4109,2691,3816,1110,-6908,-187,-257,-3084
1958,19020,3912,2688,1972,-1692,-3012,-254,-456,-1784
1959,19008,4056,2689,3142,480,-3388,-345,420,-2292
1960,19008,4301,2690,3172,2592,-3790,-545,-949,-2174
1961,18984,3515,2688,2406,-652,-2656,439,125,-3795
1962,18650,4102,2690,3504,-2718,-2406,507,141,-2236
1963,18650,3952,2691,2298,-1138,-4558,-16,1198,-2893
1964,18183,4363,2690,434,-826,-3058,29,-866,-2975
1965,18183,3618,2690,4336,-2352,-3280,171,-127,-4137
1966,17705,3957,2689,1780,-1360,-4308,-552,-981,-2825
1967,17705,4088,2688,-560,-1298,3468,503,-479,-4355
1968,17310,4001,2688,-1220,-1910,-2066,304,795,-1269
1969,17131,3956,2689,920,-1852,-3706,740,-905,989
1970,17131,3916,2689,170,-784,-4382,-597,754,-2837
1971,17107,3957,2688,1064,1618,-2482,-1469,-803,-2041
1972,17107,4158,2689,1392,2292,-678,-1349,-453,-243
1973,17131,3994,2689,1580,1272,422,387,492,-2725
1974,17131,4050,2690,1558,4542,-2982,-51,-161,-935
1975,17131,4112,2688,3830,-320,-5066,462,-622,-2772
1976,17215,3898,2690,-30,-2278,-4952,-442,1626,49
1977,17215,4136,2690,552,-3798,-2472,-633,20,320
1978,17322,3932,2688,520,-732,76,717,-784,-4761
1979,17322,4200,2690,444,400,-2874,578,585,-1652
1980,17334,3966,2690,2042,4692,-4914,149,-1130,163
1981,17322,4212,2690,1324,388,-3456,397,-425,1390
1982,17322,4137,2689,-852,1958,-2532,-216,1757,-1127
1983,17203,4196,2688,2384,944,-6060,87,-1304,-5142
1984,17203,4199,2691,1578,-2876,-2672,565,623,-2881
1985,17131,4107,2690,840,1454,-3812,568,-1930,-1407
1986,17131,4249,2689,3442,-562,-2648,882,649,-3049
1987,17035,4318,2689,14,1150,-2912,420,1850,-2456
1988,17047,4336,2690,1492,-2094,-3516,113,-987,-2185
1989,17047,4279,2688,1036,796,-5854,187,-94,-1664
1990,17035,4646,2690,1842,-2048,-3182,-216,102,-1773
1991,17035,3962,2690,-480,50,-1690,26,442,-3535
1992,17047,4373,2690,962,502,-1232,-513,909,-2952
1993,17047,3971,2689,-826,-1788,-3326,255,73,-1905
1994,17047,3939,2689,2718,558,-7572,510,496,-2740
1995,17035,4536,2688,874,782,-8914,375,646,-2250
1996,17035,3859,2689,3176,532,-5956,-58,325,-2183
1997,17035,3911,2688,1228,366,-7330,-658,-136,-1861
1998,17035,3432,2690,468,-2306,-2980,-474,-777,-511
1999,17047,3873,2690,916,1808,-5110,226,-1273,-2589
2000,17047,3941,2689,1868,-1032,-4096,629,-1245,-308
2001,17035,3968,2689,232,286,-9020,-866,1604,-1201
2002,17035,4073,2690,1264,-1448,-3700,-420,-1184,-1575
2003,17035,4077,2690,1982,-1676,-4284,-103,-444,-361
2004,17047,4239,2689,3048,2124,-6790,-419,449,-1086
2005,17047,4365,2689,784,-2112,-1000,1024,312,-1354
2006,17047,4247,2690,1562,-998,-4778,-126,1389,-1369
2007,17047,4693,2689,-1714,-718,-5908,-749,-269,-1092
2008,17047,3991,2689,598,-1104,-10242,-407,226,-1428
2009,17047,4062,2690,560,34,-2784,-155,-892,-753
2010,17047,4256,2689,942,-1174,-2304,526,-491,-1257
2011,17119,4298,2688,3814,1866,-3436,543,-844,-1378
2012,17119,4188,2689,2514,94,-7912,281,-364,-1858
2013,17047,4235,2689,798,1266,-3290,-471,337,-768
2014,17035,4321,2688,-1230,4548,-7458,-345,1119,244
2015,17035,4253,2689,818,-1266,-3108,791,-654,544
2016,17035,4111,2688,174,708,-3806,-745,-713,2834
2017,17035,4216,2688,-882,2472,-2220,-152,-1473,1460
2018,17047,4160,2688,790,-860,-1568,381,-2200,-1961
2019,17047,4194,2690,-270,2700,-5218,-158,-167,-1360
2020,17047,4120,2688,1298,-124,-7120,97,137,594
2021,17023,4296,2688,-512,-2358,-5802,58,223,-3476
2022,17023,4295,2689,1174,-12,-4720,-394,-723,-1917
2023,16976,4353,2689,540,-362,-1022,652,1058,-3332
2024,16976,4157,2689,732,622,-792,730,-1238,835
2025,16976,4337,2690,1058,-2394,-2502,-22,-907,738
2026,16976,4235,2688,436,4498,-7754,-29,426,408
2027,16964,4302,2689,2374,-1658,-1274,271,566,-1914
2028,16964,4238,2688,-1616,592,-3676,636,1713,-3111
2029,16964,4233,2689,2486,-572,-6720,742,-111,1039
2030,16808,4089,2689,1416,-2490,-1426,516,-1124,-270
2031,16808,4268,2690,-434,2992,-6036,-83,-275,-1180
2032,16641,4363,2689,596,2454,-5820,433,-472,1113
2033,16641,4230,2689,-150,902,-9694,549,712,1790
2034,16521,4207,2688,654,-2404,-2832,-193,379,-296
2035,16533,4228,2688,212,2950,-4450,465,483,-1281
2036,16533,4645,2690,1874,1388,-4260,68,-834,-1354
2037,16533,3651,2691,888,-1058,-2816,100,-914,-408
2038,16533,4282,2691,140,650,-3742,568,-564,-597
2039,16306,4247,2688,2054,1272,-4144,410,661,1006
2040,15947,3998,2690,1274,2910,-6690,-897,1065,399
2041,15947,4422,2690,-864,1390,-3598,-1091,207,1207
2042,15517,4247,2688,-1030,-2144,-2936,-109,475,-1330
2043,15517,4301,2689,-268,412,-5944,833,-1476,-28
2044,14919,4213,2690,-1110,-878,-3850,384,979,-2781
2045,14919,4260,2688,-4640,812,-2886,416,-1260,971
2046,14297,4332,2688,-4518,-600,-3868,-326,-1873,-954
2047,13939,4269,2687,-922,1118,-3794,-332,-1216,3459
2048,13939,4233,2689,-1838,652,-8326,-833,-273,1976
2049,13891,4316,2691,-2788,-124,-8902,727,-31,214
2050,13891,4064,2690,-3526,712,-7028,704,912,-2265
2051,13903,4077,2690,-1318,-112,-3518,436,1699,278
2052,13903,4219,2689,-4124,2168,-4568,-888,286,2073
2053,13424,4318,2688,-678,222,-4508,-555,-1371,2934
2054,12492,4497,2691,-2948,-1080,-770,436,-590,5657
2055,12492,4238,2692,488,-1072,-5098,914,-1552,2085
2056,12001,4227,2688,-4832,678,-3854,642,375,3382
2057,12001,4297,2688,-5310,-3492,-1222,643,1242,3762
2058,11870,4249,2688,-6034,1334,-2438,-106,-294,956
2059,11870,3912,2688,-3558,-1452,-3520,-800,29,8563
2060,11906,4357,2688,-800,-2844,-3226,187,-1212,6320
2061,12133,4096,2691,-2586,-1866,-5608,249,-1244,5474
2062,12133,3822,2692,-4312,1192,-7916,807,-261,3205
2063,12456,4637,2690,-3674,-2682,-810,-668,179,9070
2064,12456,3971,2689,-3990,1230,694,-610,-911,5707
2065,12779,4040,2687,-2702,1028,-3760,-1466,1455,6114
2066,12779,4606,2690,-2032,-1678,3756,-458,2176,-231
2067,13149,4030,2691,-1200,-818,-4776,-691,414,5100
2068,13795,4634,2690,-5490,-1870,-1216,630,1459,4850
2069,13795,3820,2691,-6806,1796,-4058,-1701,-1231,6907
2070,14405,4273,2689,-6096,1882,-5404,-600,-1422,4735
2071,14405,4164,2688,-166,-2564,-2032,-57,160,5363
2072,15218,4277,2688,-1294,-1420,-4776,901,391,5389
2073,16545,4516,2690,-894,-154,-2586,736,416,-1732
2074,16545,4214,2691,-7852,-2820,-2432,2583,531,1802
2075,16964,4188,2690,-1850,-1916,-6254,317,1554,3912
2076,16964,4064,2687,2224,-298,-5078,-759,-1015,4587
2077,17047,4063,2689,-1690,-1148,-2128,-923,97,4750
2078,17047,4014,2693,-1974,2552,-658,-25,274,1835
2079,17047,4082,2691,-2984,-1338,-1374,1554,87,-361
2080,17035,4015,2691,-1920,1896,-4648,194,2151,323
2081,17035,4035,2690,-2594,976,-3402,-574,1243,2510
2082,17047,3950,2686,-1056,-924,-2398,-46,206,809
2083,17047,4163,2686,1848,2128,-7486,-1375,-425,2112
2084,17035,4053,2692,-1610,-1738,3602,584,-686,2577
2085,17035,4087,2692,-978,160,-6990,381,502,-1369
2086,17047,3984,2690,-3694,962,-2292,48,1315,-1304
2087,17035,4028,2688,-750,2880,-4220,317,1,2993
2088,17035,4028,2689,930,316,-6798,-229,769,134
2089,17047,4129,2688,702,-3268,-2838,-1058,-367,2761
2090,17047,4088,2689,1300,958,-3314,1392,-933,-1920
2091,17047,4169,2689,50,4654,-4372,-487,-381,-1805
2092,17047,4230,2688,466,-960,-1762,1217,452,-2843
2093,17047,4211,2689,-360,3208,-8280,-74,1198,10
2094,17047,4264,2687,-242,-634,-7046,-1178,477,1121
2095,17047,4310,2687,-774,2944,-7110,-610,2541,488
2096,17047,4293,2688,3216,-3206,-4080,284,1230,-3014
2097,17047,4386,2689,1106,1844,-3396,-355,-1568,-771
2098,17047,4305,2689,-122,1294,-4132,-1449,-816,10505
2099,17047,4249,2690,2128,-1028,-2984,38,-174,-1360
2100,17047,4405,2689,-1528,-434,-4898,-271,-1063,81
2101,17047,4249,2689,500,-1726,-3768,-48,-444,-4458
2102,17047,4306,2690,-350,-266,-3332,419,-1076,-6318
2103,17047,4159,2688,614,3596,-5128,3,1001,-1375
2104,17047,4250,2689,-2840,100,-4464,526,509,1242
2105,17000,4153,2691,-1012,1930,-5236,310,1354,-753
2106,16964,4167,2689,-208,1556,-2556,-739,-866,102
2107,16964,4219,2687,238,1116,-3294,148,-492,-906
2108,16904,4249,2689,-306,-448,3296,-167,-176,-107
2109,16904,3939,2689,834,932,-5190,-365,296,-1378
2110,16509,4246,2690,800,-1206,-3654,68,788,-2969
2111,16509,3881,2691,1102,100,-7198,236,172,5253
2112,15708,4194,2689,-862,-1572,-7274,-1372,2589,3064
2113,14465,4208,2688,1382,-3044,-1642,-316,-2368,-2015
2114,14465,3998,2690,654,-2992,-1786,-1085,-22,-2368
2115,13293,4064,2691,-4932,3422,-762,749,-965,-1953
2116,13293,4038,2689,-1414,2128,-6318,126,-1737,449
2117,12743,4128,2689,-832,636,-5022,10,651,3812
2118,12743,3994,2688,-1706,342,-5172,384,-876,2975
2119,12599,4219,2689,-4514,-2874,-6602,-807,604,3488
2120,12599,4082,2688,-2616,-1500,-4328,-232,-9,5015
2121,12599,4150,2688,-2218,-470,-3958,924,909,1976
2122,12743,4045,2690,232,446,-4818,1405,-1953,4979
2123,12743,4017,2692,-2994,2176,-8034,607,-1025,2336
2124,12946,4080,2692,-3666,304,-3580,290,435,4231
2125,12946,4050,2689,-2082,-1388,-3336,-6,-1707,1844
2126,13173,4062,2687,-1302,-550,352,187,665,4360
2127,13496,4217,2691,-1356,-294,-1650,-587,-143,4408
2128,13496,4193,2690,-4974,788,-4788,-232,89,3176
2129,13663,4039,2692,-4028,-706,-2462,578,-2731,4929
2130,13663,3963,2693,-6116,-1092,-3566,655,-193,3559
2131,13831,3891,2688,-2632,-632,-7678,290,-143,7361
2132,13950,3905,2685,-2414,-1632,-5760,-233,1687,5525
2133,13950,3845,2689,92,-1184,1016,93,1721,5268
2134,13974,4136,2690,-3392,1232,-2746,539,-56,6612
2135,13974,3963,2692,-3730,1662,-7516,-284,2157,4838
2136,13974,3724,2693,-5966,1286,-5700,-187,-3112,5530
2137,13974,4459,2688,-5876,2276,-6978,-749,512,6765
2138,14022,4005,2689,-2400,226,-514,246,-2644,6674
2139,14010,3702,2689,-3088,-188,-2770,497,-1174,6583
2140,14010,4714,2691,-876,480,-1212,-168,2338,6571
2141,14082,3928,2691,-5324,-174,-7082,452,-628,6102
2142,14082,4224,2691,-7894,1120,-4876,133,-18,7679
2143,14417,4105,2691,-7490,-130,-3446,-455,-536,4484
2144,14417,4083,2689,-1884,1382,-5676,-391,-422,6686
2145,14752,3895,2688,-1870,-1142,-4070,252,-2216,4976
2146,15074,3989,2689,-1410,-2136,-2118,100,1090,5819
2147,15074,4099,2691,-876,-854,-6856,368,743,2884
2148,15756,4221,2691,-5758,252,-5874,233,640,4535
2149,15756,4109,2689,-690,908,-964,446,-1695,4036
2150,16449,4047,2690,-1690,2964,-7376,265,-815,2120
2151,16449,3919,2691,-1824,474,-2438,-381,975,7673
2152,16964,4099,2689,-1728,1374,-308,656,-136,2286
2153,17000,4015,2688,-656,-3898,-850,1011,439,-676
2154,17000,4058,2689,-2472,-550,3348,-55,848,2227
2155,16988,4168,2691,-3234,1800,-5012,-439,140,4873
2156,16988,3886,2690,-458,-962,-3560,581,423,-788
2157,16988,3963,2689,-22,2246,-6284,-513,804,-2015
2158,17011,3975,2689,-628,3608,-7912,-574,769,-1581
2159,17011,4065,2689,884,2188,-4406,1237,411,184
2160,17000,4064,2690,-480,2860,-5706,207,592,199
2161,17000,3932,2690,-52,2396,-3636,562,522,-1545
2162,17023,3971,2688,-1250,-136,-5426,474,7,-1838
2163,17023,4040,2690,1064,2364,-9948,-443,-952,-2409
2164,17023,3954,2688,928,-1594,-1158,-290,-443,-2533
2165,16988,4143,2689,594,-1528,-3014,388,233,-753
2166,16988,4118,2689,-956,-1562,-1456,823,-98,2227
2167,17000,4107,2690,172,1730,-3566,184,442,-738
2168,17000,4040,2689,-1658,1154,-5364,-64,-634,-1481
2169,16988,4134,2689,1418,-2136,-2914,-145,894,1057
2170,16988,4128,2689,794,-1870,488,659,-275,-1478
2171,17011,3985,2688,38,-1974,-4116,20,-139,2280
2172,17023,4042,2689,-1104,-292,-3770,-216,414,782
2173,17023,4017,2689,-1074,-958,-6110,-4659,1302,5433
2174,17023,3788,2690,2092,-938,-6000,-752,-301,40
2175,17023,3793,2688,116,-950,-2978,-510,1610,553
2176,17011,3966,2688,226,1494,-3006,26,766,-196
2177,17011,3758,2689,-984,2950,-5774,-39,-510,880
2178,16988,3922,2689,-290,-384,-4434,588,395,353
2179,16988,4247,2689,-2928,-1132,-8008,71,1573,-2050
2180,16988,3886,2688,-746,-1464,-3926,-158,45,818
2181,17035,4050,2689,-94,-1700,-3864,-103,496,921
2182,17035,4314,2690,-1926,-986,-5518,-636,61,965
2183,17131,4181,2690,-944,1344,-3732,-275,-444,2020
2184,17215,3955,2689,-3038,2130,-5112,-164,-1133,1360
2185,17215,3906,2689,140,-876,-6598,-391,188,-1172
2186,17370,3486,2690,-2442,-714,-3526,-281,1211,909
2187,17370,4040,2690,1520,-918,8,-1137,2208,-1027
2188,17382,3810,2689,-1034,968,-1456,181,-298,-223
2189,17382,4179,2689,-284,-1826,-2176,123,-50,-22
2190,17370,3894,2691,-368,-130,-4624,220,883,974
2191,17358,3867,2690,1476,-100,-6554,-106,-622,741
2192,17358,3912,2689,-192,822,-2980,-1298,670,-46
2193,17131,3770,2688,822,-786,-5098,-564,-1021,105
2194,17131,4046,2688,594,1340,-5076,727,1052,-5292
2195,17143,4037,2690,-142,-300,-2682,-933,-771,193
2196,17143,4103,2691,-374,-1212,-4316,856,1414,-4493
2197,17143,4149,2689,1388,2452,-5056,1663,3507,1563
2198,17119,3943,2689,-1316,-808,-1824,-633,255,-1275
2199,17119,3854,2690,72,-494,-3228,-77,-174,1313
2200,17107,3890,2688,-2416,796,-3178,278,-177,2288
2201,17107,3973,2691,-354,856,-1890,-533,-95,-246
2202,17047,3997,2688,-648,2030,-2138,-384,753,113
2203,17047,4059,2690,-866,2230,-2516,-316,900,1298
2204,17035,4063,2690,468,-1630,-4102,869,-631,1532
2205,17047,4292,2691,1092,-900,-4332,1295,-542,-2162
2206,17047,3801,2689,684,286,-5992,-9,214,-3730
2207,17047,3933,2688,258,50,-5930,87,508,219
2208,17047,3583,2689,-1020,1176,-4268,-90,-1250,747
2209,17047,4223,2689,736,2480,-1110,371,-390,-803
2210,17047,3470,2689,-24,-348,-6208,1073,1,-358
2211,17035,3921,2690,764,-1128,-1630,756,-222,-231
2212,17047,4240,2690,-66,-344,-646,614,724,603
2213,17047,3417,2690,1380,234,-4922,452,1153,1690
2214,17035,3898,2688,514,-1924,-3468,662,108,-349
2215,17035,3838,2690,1882,-170,-4332,836,-21,-730
2216,17047,3907,2691,-1044,-660,-5132,20,23,-1988
2217,16964,3872,2690,-782,-550,-5068,-132,-368,-709
2218,16964,3832,2690,1154,-1092,-3048,-320,559,-700
2219,16964,4013,2690,668,148,-3270,-810,-621,-2586
2220,16964,3753,2690,536,-1756,-7456,164,-447,-1997
2221,16748,3958,2689,1958,1592,-4114,0,343,-4546
2222,16748,3836,2689,702,-376,3684,-26,270,1578
2223,16617,3993,2689,2428,-180,-5800,-671,-288,278
2224,16414,3775,2689,-1356,700,-5040,388,-237,-3043
2225,16414,3905,2691,-334,-1280,-9292,765,1445,-4596
2226,16198,3860,2690,794,-356,-86,-307,-1416,-886
2227,16198,3962,2691,-1208,-4,-6118,-113,-358,-1231
2228,16091,3913,2691,164,-140,-2192,-39,252,-1640
2229,16091,3819,2690,-268,-1958,-6674,-914,-1597,924
2230,15971,3819,2689,44,-196,-5716,-846,255,1242
2231,15876,4088,2689,-588,-2084,-1474,-549,-1273,880
2232,15876,4344,2688,1958,-156,-7398,-381,1449,570
2233,15756,3925,2690,-1414,120,-3388,-556,613,261
2234,15756,3480,2687,-866,-896,-3870,362,26,-5
2235,15517,3927,2687,-4,-2408,-4572,152,818,-484
2236,15517,3849,2689,-2578,3460,-5322,-594,-1651,4072
2237,15182,3971,2689,-1720,3114,-4836,-239,-1396,414
2238,15051,3876,2689,-1426,-1224,-5058,1301,-828,1726
2239,15051,3835,2689,-1798,-370,-2940,-58,1344,3149
2240,15051,3832,2689,-1968,-290,-5802,74,-1759,2781
2241,15051,4107,2690,-3758,1558,-6002,455,287,3727
2242,15062,3849,2689,552,2640,-112,-558,-397,1080
2243,15062,4126,2688,-1976,1924,-5770,-358,-507,1310
2244,15062,3944,2689,-3472,3850,-3294,-1208,578,3918
2245,15074,4037,2691,-1550,516,-4240,313,204,2176
2246,15074,3931,2690,-3162,386,-9530,-733,51,3886
2247,15003,3931,2688,-190,3594,-4554,-1543,-234,-81
2248,15003,4141,2688,-2250,910,-6822,197,309,231
2249,14943,4053,2689,-650,-1696,-2592,449,-8,3603
2250,14572,4010,2690,2072,318,-5678,-135,503,1222
2251,14572,4081,2689,-490,78,-4582,523,-368,1313
2252,14058,3967,2689,-3814,1846,-6060,-574,140,449
2253,14058,4132,2687,-1104,1204,-1090,-852,-319,6483
2254,13652,4149,2687,-822,-2318,-1896,-2495,1674,2274
2255,13652,4089,2687,1294,-1152,-2292,1250,1782,-1239
2256,13305,3939,2689,-900,1538,-2990,772,-917,2241
2257,13305,3978,2690,-5174,2044,-9668,110,1342,6433
2258,13305,3744,2688,-3124,-2264,-4564,446,55,5053
2259,13305,3834,2686,-6452,-818,-3866,-1353,738,4416
2260,13305,3957,2687,-2170,-3598,-2652,336,-527,8958
2261,13412,3737,2688,-1536,3266,-6320,697,-1260,4587
2262,13412,4180,2690,-3208,1644,-3992,275,-28,3812
2263,13544,4174,2691,-3892,1718,-6454,-93,223,4195
2264,13723,3946,2688,-3566,452,-5210,139,160,6403
2265,13723,3878,2686,92,0,-4630,-610,484,6547
2266,13795,4391,2688,-1698,1998,-1414,-387,-672,3668
2267,13795,4129,2691,-2370,-3396,-2268,436,-1552,5413
2268,13891,4060,2691,-2784,-3450,2588,1363,-1101,7098
2269,13891,3902,2691,-5362,2362,-6046,966,284,2130
2270,14022,3558,2687,-4168,-1896,-1542,139,235,6323
2271,14166,4128,2688,-1690,56,-6120,116,823,5775
2272,14166,4503,2689,-1866,2920,-1792,-374,1433,2498
2273,14489,3243,2689,-1292,-16,-1250,714,239,4487
2274,14489,4660,2690,-4032,-1670,-2858,-336,-580,3865
2275,14811,3716,2691,-6146,-1400,-3538,1102,-1463,3860
2276,15146,3785,2689,-6020,3470,-7238,-1056,-1172,7770
2277,15146,3916,2689,-2166,154,-3126,-126,1,3768
2278,15242,4013,2689,-2594,-308,-3764,326,-437,2843
2279,15242,3943,2691,-766,-1616,-482,-310,2503,4204
2280,15720,4071,2691,-2222,-1960,-4290,98,-586,5599
2281,15720,3764,2690,-3914,-46,-8314,927,1316,880
2282,15876,3937,2690,-3358,832,-160,307,-2391,1678
2283,16234,3941,2690,-5094,2388,-12834,-571,-139,2436
2284,16234,3867,2690,-1786,2468,-5234,-651,1021,6963
2285,16545,4077,2690,-2068,-416,-3504,-319,909,1510
2286,16545,4061,2689,-2218,-824,1370,736,912,1926
2287,16976,4029,2690,-728,34,-3214,862,-812,1684
2288,16976,3939,2690,-2570,0,-4900,1114,83,-2952
2289,16976,3942,2689,712,356,-3236,940,1014,-835
2290,16964,3999,2688,1070,198,582,-687,734,2185
2291,16964,4019,2688,-124,1834,-4466,-245,423,1502
2292,16964,4076,2692,-2948,110,718,624,1030,-1065
2293,16964,4042,2691,790,2176,-6956,42,-1450,561
2294,17047,3952,2690,-2384,472,-3858,632,-136,-1805
2295,17047,4003,2690,16,900,-3782,230,-1885,-655
2296,17107,3921,2689,-3932,1080,-5638,-658,937,841
2297,17155,4054,2688,380,734,-1568,-168,1995,293
2298,17155,3943,2690,-712,388,-2420,-261,-978,1714
2299,17454,3834,2688,-804,908,-5128,59,821,792
2300,17454,3945,2690,-920,2886,-3652,443,642,1095
2301,17848,4075,2689,-2078,2924,-8668,-2315,223,7688
2302,17848,4002,2689,3020,4264,-3940,620,-768,1121
2303,18088,4017,2690,338,3218,-10588,252,-59,738
2304,18195,3986,2692,134,1316,-2250,-539,522,815
2305,18195,4272,2691,466,2692,-2712,384,-396,1045
2306,18506,3890,2692,-1740,46,-3010,-436,-581,-1522
2307,18506,4163,2691,3692,-476,-6638,262,1592,-2165
2308,18494,3519,2691,2760,70,-3260,55,-1162,-1060
2309,18398,4198,2691,1964,-2310,-3138,-516,-422,-3229
2310,18398,4015,2691,498,1628,-2210,-213,280,-3565
2311,18076,4033,2689,-556,234,-2224,-90,52,-3373
2312,18076,3944,2689,1696,1974,-4564,-658,-1578,995
2313,17908,3901,2688,34,-1108,-4678,107,-1317,-3423
2314,17908,3954,2691,2014,-2554,-1226,38,375,-2271
2315,17896,4124,2690,1890,-940,-8090,127,-532,-3355
2316,17932,3866,2689,180,-1368,-2292,324,1805,-3385
2317,17932,4091,2688,2690,260,-686,94,680,-3562
2318,17932,3844,2690,1282,1052,-5926,3,-653,-2857
2319,17932,3946,2689,1900,-1194,12,74,-1835,-4028
2320,17848,3964,2689,1704,-1976,-6414,419,-283,-1257
2321,17848,3773,2689,2956,-1250,-6428,81,1134,-3143
2322,17561,3952,2689,2020,-2196,-2882,-26,-329,-352
2323,17143,4058,2690,3470,-1430,-5366,-235,411,247
2324,17143,3964,2690,2460,450,-3918,-507,1262,-2221
2325,17119,4102,2690,196,756,-4428,194,-333,-2168
2326,17119,3961,2690,940,-1720,-4246,265,2123,-3903
2327,17035,4160,2689,2088,2072,-3266,440,-859,-2438
2328,17035,3937,2690,332,1974,-5206,1143,465,-1446
2329,17035,4132,2690,2652,-2014,-3890,-468,315,-939
2330,17035,4023,2687,1216,-610,-1762,32,-1305,-302
2331,17035,3878,2687,1108,-2280,814,-377,732,-384
2332,17047,4092,2690,750,-84,-1874,256,-1167,-3252
2333,17047,3982,2690,1036,1772,-1962,-355,579,-1166
2334,17047,4043,2689,398,-3590,-3776,488,718,-995
2335,17023,3942,2690,444,-1776,-4676,55,-723,46
2336,17023,3976,2689,964,-1242,-4562,107,722,-2925
2337,17011,4090,2687,1682,986,-626,-668,-181,-2321
2338,17011,3985,2688,-568,770,890,468,404,-1929
2339,17035,3835,2690,246,-60,-5230,162,900,-941
2340,17035,3845,2690,2396,598,-6414,52,-962,-1564
2341,16964,3892,2689,-372,692,-7038,-258,2339,-1640
2342,16748,3860,2689,2636,-412,-4936,32,1246,-5174
2343,16748,4548,2688,-94,2880,-5846,443,-1339,-954
2344,16091,3750,2689,718,3294,-4010,-64,-374,-1670
2345,16091,4095,2690,316,2030,-5496,497,58,-980
2346,15182,3874,2690,282,1566,-8064,465,90,-1154
2347,15182,4367,2688,-3670,-354,-2798,-1495,-155,258
2348,14596,3114,2690,2360,1146,-2582,333,-152,-1693
2349,14190,4489,2688,-3652,-396,-8722,-839,-895,526
2350,14190,3423,2686,-1788,746,-2026,-68,-644,-553
2351,13950,3901,2688,-2608,-42,-1470,-181,-965,1325
2352,13950,3959,2688,-384,1220,-7490,-646,290,-1499
2353,13891,3853,2688,-1518,-1086,-1458,468,-174,-623
2354,13891,3928,2690,-6530,-2734,-5800,-226,1137,1227
2355,13783,4047,2690,-1176,1652,-2616,120,560,-741
2356,13329,3943,2687,-2168,-200,-4890,-704,64,1667
2357,13329,3951,2690,-1060,-1762,-2960,-329,-605,4004
2358,12791,3928,2690,-2606,-2736,-3730,-177,-952,3061
2359,12791,3938,2688,-3956,-1840,-2692,362,-1133,1950
2360,12480,3953,2688,-2704,-1980,-3488,-277,-1110,1617
2361,12480,4060,2691,-2956,-1388,-1240,87,-476,3461
2362,12372,4086,2687,-4576,1244,-5066,-1995,804,6698
2363,12324,4005,2688,-1420,972,-3720,-122,325,3986
2364,12324,4133,2688,-2122,-2006,-6588,26,-396,4847
2365,12456,4043,2689,-4252,2192,-7946,-1462,55,12554
2366,12456,3814,2690,-3870,-284,-1044,-81,-209,8973
2367,12671,3841,2688,-6450,-2898,-5986,-878,-539,3830
2368,12683,3922,2687,-4078,-1382,-4190,-1068,-310,4151
2369,12683,3825,2688,-1512,-2130,1394,20,128,7915
2370,12456,3824,2688,-2500,-1458,-6200,213,-1403,3653
2371,12456,4077,2689,-1950,-1380,-6402,-742,245,4045
2372,12073,4303,2690,-3312,-1062,-5118,326,-1504,6253
2373,12073,3909,2689,-2692,-2522,-2516,258,134,7585
2374,11798,3550,2687,-2840,-656,-972,1115,843,3536
2375,11738,3983,2689,-1378,-482,-4770,71,731,4914
