index,servo,motor,gimbal,acc_x,acc_y,acc_z,gyro_x,gyro_y,gyro_z
0,0,0,0,16,-100,-3870,79,-160,-36
1,16988,0,2690,-18,62,-3960,43,114,-98
2,17000,0,2691,-54,102,-3886,11,-87,14
3,17000,0,2690,8,-66,-3930,-18,25,164
4,17000,0,2690,-34,34,-4084,-73,108,-172
5,17000,1,2689,-82,92,-3916,66,-121,-131
6,16988,0,2691,-14,2,-3944,-5,16,-60
7,17000,0,2690,-88,2,-3980,76,-47,2
8,17000,0,2690,-108,78,-3990,43,250,-122
9,16964,0,2691,6,-50,-3894,121,-146,40
10,16964,1,2692,-18,54,-3942,-34,63,-148
11,16976,1,2690,-60,112,-3898,-2,66,-1
12,16976,0,2688,60,-88,-3972,17,114,-48
13,16964,0,2690,-44,130,-3974,-47,-99,105
14,16964,-1,2689,-98,130,-3952,-150,203,-116
15,16964,1,2689,10,-42,-3992,-21,101,-92
16,16976,0,2690,-44,32,-4004,40,-121,129
17,16976,0,2690,-40,84,-4006,21,-242,102
18,16976,0,2689,-58,50,-3930,-66,327,-25
19,16976,0,2690,-24,-130,-3884,34,25,58
20,16964,0,2689,-74,56,-4018,63,-131,273
21,16976,0,2689,-40,50,-3898,21,-292,23
22,16976,0,2689,40,-46,-3858,-40,50,211
23,16976,0,2689,-34,50,-4032,-60,171,-87
24,16976,0,2690,12,-30,-3906,15,-64,-228
25,16976,0,2689,-42,114,-3902,-25,-26,-222
26,16976,0,2690,-56,148,-4048,-27,165,70
27,16976,0,2689,32,-84,-4166,40,76,52
28,16976,80,2691,-286,1044,-4680,50,104,-104
29,16976,314,2690,312,-796,-4252,108,91,-28
30,16976,387,2692,108,-386,-3728,63,9,-381
31,16976,596,2689,394,952,-5462,137,-385,191
32,16964,537,2690,-882,1556,-2190,-237,200,-405
33,16964,390,2689,-1384,2648,-5952,-689,-10,-66
34,16964,439,2690,-202,5878,-5936,-816,349,-104
35,16976,645,2689,-306,492,-1056,-21,-533,235
36,16976,900,2688,-2770,1650,1388,402,117,143
37,16964,1189,2688,932,3618,-2218,-47,143,-1318
38,16964,1298,2688,826,5148,-4796,-163,362,-564
39,16964,1041,2689,1106,3220,-3802,-18,-448,311
40,16964,1176,2690,-40,-2056,-1740,353,510,-201
41,16964,1190,2689,200,-60,-3960,408,276,700
42,16964,1340,2691,-52,2528,-36,144,-200,-95
43,16964,1439,2690,-1126,710,-232,544,968,-567
44,16976,1361,2690,1226,390,-7962,560,663,-897
45,16976,1306,2689,-86,-212,414,-138,422,-92
46,16976,1326,2689,246,4864,1344,-560,359,-767
47,16976,1150,2688,-516,4390,-1238,399,89,90
48,16976,1342,2690,-188,2796,436,686,130,-1386
49,16976,1483,2691,768,5274,-4402,-347,390,329
50,16976,1265,2689,-1086,360,-4896,534,-670,423
51,16964,1390,2689,40,372,-1862,182,-515,-352
52,16964,1587,2688,704,790,-8740,-344,616,-302
53,16964,1388,2689,308,1182,-1550,-331,56,-42
54,16976,1446,2691,-1380,20,-2774,-50,89,-87
55,16976,1445,2689,36,-662,-4412,2,89,-552
56,16964,1483,2690,424,96,-6266,118,6,-175
57,16964,1398,2692,422,-908,-4414,202,-83,-87
58,16964,1376,2688,652,58,-5556,-302,-68,84
59,16976,1249,2689,212,-820,-3520,18,324,379
60,16976,1332,2690,22,4,-4672,28,514,-231
61,16976,1312,2689,76,644,-4190,170,352,-151
62,16976,1423,2691,-242,514,-4126,295,-165,-219
63,16976,1274,2691,-170,416,-6066,-447,-22,559
64,16976,1259,2689,712,-596,-4064,2,-416,485
65,16964,1421,2689,-218,-714,-3812,182,28,229
66,16964,1252,2691,448,-990,-3594,-102,-394,-207
67,16964,1421,2690,-1130,-422,-3578,-260,159,-134
68,16964,1258,2689,576,1160,-3396,75,72,-151
69,16964,1298,2689,-700,-556,-3166,234,-334,261
70,16976,1327,2689,390,-664,-4150,-18,146,-585
71,16976,1537,2689,-92,390,-3262,76,130,-305
72,16964,1403,2689,364,852,-4568,-96,110,-626
73,16964,1378,2689,-166,822,-3144,-24,-435,93
74,16964,1645,2691,-1222,660,-3670,-150,-172,8
75,16964,1562,2690,982,426,-6350,-454,181,438
76,16964,1613,2690,-714,126,-3206,-150,-258,90
77,16976,1686,2690,238,1270,-5330,173,508,-36
78,16976,1574,2690,-358,-234,-3476,379,79,-160
79,16976,1612,2691,126,-424,-4190,208,-258,-564
80,16964,1625,2689,-500,-134,-3192,276,-102,-888
81,16964,1530,2690,208,672,-3686,-311,60,-172
82,16964,1528,2690,148,-490,-3768,-561,-188,-744
83,16964,1495,2690,134,-1104,-3514,363,352,-201
84,16976,1392,2691,-436,2516,-4010,473,-48,182
85,16964,1581,2690,-1158,2380,288,-476,585,79
86,16964,1544,2690,1104,1544,-5236,-105,282,114
87,16964,1587,2690,430,-790,-4692,186,-317,-635
88,16964,1566,2689,-456,1086,-1010,-241,174,-151
89,16976,1578,2688,80,1754,-6046,-2,70,140
90,16976,1615,2689,-894,1566,-824,153,16,-116
91,16964,1628,2688,496,558,-5354,-82,149,179
92,16964,1678,2690,-834,502,-3624,-163,184,-408
93,16964,1667,2689,-626,3762,-6090,-308,168,-325
94,16976,1709,2688,-260,-326,-5304,-92,600,-328
95,16976,1721,2691,-248,346,-3288,369,148,-255
96,16964,1666,2690,-1748,562,-3172,215,279,-299
97,16964,1752,2689,1514,480,-3888,-47,-410,-761
98,16964,1848,2690,114,144,-7146,279,-538,-234
99,16976,1353,2690,-454,-624,-3098,-147,82,-1230
100,16976,1778,2689,-266,-494,-4874,350,-321,397
101,16976,1588,2689,136,-150,-4428,202,663,270
102,16976,1556,2690,462,778,-3228,-83,-33,2
103,16964,1866,2689,-166,-312,-1998,-169,228,-210
104,16964,1480,2690,52,-140,-3240,15,-57,-134
105,16964,1680,2689,438,-1412,-3088,218,-493,-405
106,16976,1650,2690,874,366,-5052,302,371,-1330
107,16976,1576,2689,488,-596,-4520,-215,-162,-184
108,16976,1733,2689,-1074,1362,-3070,-328,257,-364
109,16976,1852,2690,-490,24,-3222,-138,-134,1231
110,16976,1772,2691,1098,-1498,-5042,102,-216,-269
111,16976,1893,2690,-490,-1846,-2956,569,371,-806
112,16976,1668,2689,1086,200,-4168,-253,111,164
113,16964,1828,2689,-152,-1028,-1540,111,-318,64
114,16964,1704,2689,-646,1086,-3790,-392,165,-664
115,16976,1754,2690,-1052,1918,-1948,-21,-268,562
116,16976,1751,2691,392,-1596,-2774,328,235,-260
117,16964,1566,2689,-242,-510,-3120,-173,-226,-216
118,16964,1792,2690,-1086,610,-2740,-76,149,-148
119,16964,1789,2689,-132,-272,-3210,15,-305,-511
120,16976,1801,2688,-268,242,-3810,-21,35,-31
121,16976,1844,2689,58,82,-3008,-8,-60,249
122,16976,1830,2690,-430,778,-4724,-350,86,1552
123,16976,1926,2689,38,1266,-4776,8,289,173
124,16964,1804,2690,-64,-978,-4358,486,66,-411
125,16964,1705,2689,-42,-1086,-4270,347,-99,-334
126,16964,1889,2690,-594,66,-4250,76,467,132
127,16976,1692,2690,-28,-1016,-4434,160,-286,-396
128,16976,1833,2689,36,460,-4146,-37,-359,-337
129,16976,1753,2690,364,-1052,-5810,28,31,-567
130,16976,1683,2689,2,-1748,-6788,-153,552,-334
131,16964,1923,2690,696,-10,-2432,-460,-191,64
132,16964,1662,2688,-446,96,-3866,-603,171,488
133,16964,1766,2690,822,1820,-5524,-102,213,-443
134,16964,1781,2690,674,1066,-4502,463,-930,-263
135,16964,1846,2691,-24,138,-3812,137,-559,-1148
136,16976,1755,2689,-378,-60,-6350,146,-128,-1719
137,16976,1884,2689,424,200,-4844,-466,99,-428
138,16976,1701,2688,-44,1430,-4478,-412,108,-1563
139,16964,1649,2690,-226,-40,-2744,370,25,-473
140,16964,1801,2690,-548,-1250,-3956,473,600,482
141,16964,1671,2689,556,362,-5852,-154,-576,-225
142,16964,1771,2689,-856,-1300,-4004,-173,393,-272
143,16964,1770,2691,52,252,-2474,-267,-166,-225
144,16964,1862,2691,-800,804,-5272,-186,225,-54
145,16964,1863,2690,-82,434,-2572,366,618,-641
146,16976,1679,2690,268,1130,-2244,-111,-73,193
147,16976,1785,2689,630,-16,-6134,-528,406,-428
148,16976,1811,2689,96,-240,-3266,-289,-251,-231
149,16976,1847,2689,-644,1238,-3606,512,286,-918
150,16976,1771,2689,848,1624,-4592,431,-353,-116
151,16964,1840,2689,676,1264,-4096,63,-261,-464
152,16964,1721,2691,-312,-80,-4772,-153,-470,-222
153,16976,1816,2689,366,1264,-4224,-254,-33,-81
154,16976,1856,2690,-2494,2138,804,-237,667,140
155,16976,1864,2689,-1934,2842,-1470,495,157,-788
156,16976,1845,2689,-68,3330,-4244,208,158,-490
157,16964,1756,2691,-106,2648,-6432,-140,667,149
158,16964,2094,2689,-1398,1342,-3446,-56,-181,1272
159,16964,1994,2688,-166,3934,-5118,-31,336,173
160,16976,1844,2690,-1568,3714,2,-111,343,-84
161,16976,2132,2689,990,638,-5262,99,169,-234
162,16976,2071,2689,-60,828,-1182,-160,-537,-788
163,16976,2196,2689,-16,1744,-4538,-263,-381,-231
164,16976,2144,2687,2758,3426,-10658,-202,-190,1278
165,16964,2259,2690,-1822,-36,-3034,379,-312,-1159
166,16964,2200,2689,130,-956,-5456,289,-508,-13
167,16964,2300,2691,-950,-540,-3386,-150,22,129
168,16964,2233,2689,-24,-172,-570,144,136,423
169,16964,2307,2691,-1578,-1404,-3764,-521,-375,-809
170,16964,2219,2690,-284,-318,-3740,-18,1019,-101
171,16976,2250,2690,-74,1294,-5296,-150,-959,93
172,16964,2217,2687,-590,-316,-4850,-173,317,-257
173,16964,2203,2690,-988,626,-148,172,202,87
174,16964,2257,2691,2258,-146,-6772,-257,-254,31
175,16964,2205,2689,-690,64,-4512,-492,353,297
176,16964,2079,2688,-1930,1214,-4162,-518,-188,105
177,16964,2405,2690,1084,-998,-5110,-241,663,-13
178,16964,2103,2689,-238,-774,-5234,421,-838,-81
179,16976,2120,2691,80,2084,-4952,150,232,-582
180,16976,2403,2691,324,-2072,-5274,53,-375,-729
181,16964,2077,2689,-308,1236,-6210,-224,657,-623
182,16964,2282,2690,242,1750,-2584,-451,177,-726
183,16964,2176,2689,-28,-1072,-3748,179,79,-629
184,16964,2239,2691,-1374,-1342,-1710,-508,819,-1089
185,16964,2210,2690,3182,-1632,-5620,383,426,-57
186,16976,2176,2689,-1760,-494,-3012,-147,92,-199
187,16976,2342,2691,-380,-216,-1204,-98,-312,-1277
188,16964,2392,2689,-558,1350,-3096,-127,562,-423
189,16964,2158,2688,112,1600,-3050,-286,92,-172
190,16964,2191,2690,-284,316,-4192,447,530,-685
191,16964,2349,2690,1392,2764,-6318,-199,129,-647
192,16964,2252,2690,1026,-952,-3734,160,219,-352
193,16964,2333,2689,-756,678,-4900,-389,318,-287
194,16964,2246,2689,1642,-852,-1658,-373,25,-169
195,16916,2290,2689,84,-718,-4038,224,-175,-81
196,16916,2219,2690,1398,1008,-6366,-137,527,67
197,16904,2355,2690,-1100,-1964,-5818,-118,-194,-1292
198,16808,2257,2688,-128,3484,-9298,-1241,-140,-573
199,16808,2383,2687,-428,2296,-6188,-941,-235,-225
200,16748,2515,2688,-72,18,502,783,-626,2030
201,16748,2214,2690,696,-112,100,1103,438,-110
202,16653,2829,2690,96,2710,-9492,176,279,-885
203,16653,2683,2689,110,3390,-8192,-8,-489,-246
204,16653,2498,2688,544,6170,-9322,-1096,-178,385
205,16521,2736,2685,-226,7538,-6442,-344,-80,-1596
206,16521,2696,2687,3352,654,-74,718,508,2690
207,16270,2974,2688,1674,-312,-1338,412,-105,-1254
208,16270,3209,2689,-1326,4834,-1496,137,-508,-1351
209,16151,3029,2691,740,-652,-1152,1348,584,-1165
210,15947,2916,2689,-850,4940,-8036,628,-96,359
211,15947,2964,2688,1650,-782,-4002,-299,-305,-228
212,15720,2936,2690,-2036,616,-1378,1267,559,-2465
213,15720,2937,2689,-190,-46,-2154,228,169,-343
214,15146,2896,2687,-1872,2540,-3950,-703,-334,102
215,15146,3008,2689,-2756,-214,2960,567,765,786
216,14704,3187,2690,470,-602,-6890,-331,-773,235
217,14309,2522,2689,-2494,-1438,-1204,-231,-896,96
218,14309,2935,2690,-1816,108,-926,218,143,503
219,14082,3025,2689,4724,-1292,-5526,-75,-359,-249
220,14082,2659,2689,-2176,1970,-5232,915,-487,-42
221,13974,2835,2689,-6236,2890,-5864,431,180,2271
222,13974,2721,2688,-1868,-1124,-2700,-715,803,4667
223,13950,3106,2687,-3490,-738,-2052,-163,660,3648
224,13939,2758,2688,-2036,-800,-396,405,425,2
225,13939,2861,2689,-2756,2358,-886,153,-941,2475
226,13939,2699,2690,-2946,1804,-6058,247,83,1369
227,13939,2952,2689,-2418,-2154,-1588,770,-29,2315
228,13950,2778,2689,-1172,-928,-2658,725,-308,2448
229,13950,2817,2689,-2086,-1354,-4470,-341,-1464,1060
230,13950,2811,2690,-1534,-746,-5140,573,-232,1888
231,13891,2875,2690,-1948,-286,-3050,195,165,2996
232,13891,2953,2690,662,-1926,-6414,-12,-166,3350
233,13771,2843,2688,-2598,-1706,438,-211,-451,6716
234,13771,2832,2689,-2076,-310,-5040,308,-23,3680
235,13663,2846,2690,-3786,572,-8224,615,850,538
236,13532,3010,2689,-3302,-406,-4136,95,161,3371
237,13532,2734,2690,-756,-368,-3714,-308,54,1658
238,13508,2751,2690,-1460,-432,-1236,173,3,2053
239,13508,2709,2690,584,-1776,-5592,354,-1134,3754
240,13293,2880,2690,-3254,64,-6354,-1742,168,7078
241,13293,2752,2690,-1166,-772,-2876,431,-1217,4081
242,12886,2822,2688,-3774,1428,-3088,-379,-280,2330
243,12312,2840,2691,1108,-1410,-2022,-299,-886,4606
244,12312,2825,2691,-3012,1730,-3152,489,-1055,3253
245,11966,2928,2688,-834,-858,-2652,-85,108,3138
246,11966,2838,2689,-5836,-3424,-226,805,-525,4296
247,12563,2516,2689,-5776,438,-7046,-399,-454,5186
248,12563,2809,2690,-4054,-1608,-3294,-393,-1157,2923
249,14118,2810,2688,-5864,1008,-5598,-34,914,5988
250,17334,2576,2689,-2718,-1778,-84,-444,-445,5672
251,17334,2886,2689,-3058,-1524,-2242,295,263,3866
252,16904,2406,2692,-130,-490,-1220,-847,-836,8231
253,16904,2593,2691,128,-336,-6924,-21,-1328,1051
254,16976,2540,2693,1632,-502,-5726,28,-712,267
255,16976,2666,2693,1216,-810,-2332,-134,336,1576
256,16976,2532,2689,816,154,-6924,-76,609,96
257,16976,2701,2688,1086,-1054,-3186,-586,-620,2371
258,16976,2359,2691,-264,-1074,98,831,-632,-1637
259,16976,2614,2690,-1612,-1554,-816,230,603,25
260,16976,2523,2689,-720,174,-7310,-357,301,-788
261,16976,2576,2688,1132,-96,-4396,-747,682,1682
262,16964,2524,2689,468,812,-2014,-325,-64,409
263,16964,2551,2690,-1014,-46,-4842,160,-305,1198
264,16976,2513,2691,-488,-3128,154,295,221,335
265,16976,2436,2690,-846,-2638,-6548,-73,-172,397
266,16976,2482,2689,1624,-942,-3752,-141,-185,-449
267,16976,2714,2689,-1582,-562,-3466,-557,-54,-178
268,16964,2376,2689,-312,-298,-1930,150,-131,901
269,16964,2317,2690,-788,924,-3934,547,883,-1036
270,16988,2638,2690,1394,-828,-6668,-608,695,176
271,17358,2471,2691,1020,932,-2918,-402,-169,697
272,17358,2687,2689,-1422,1028,-5300,-166,130,-1168
273,18530,2346,2689,-1296,-778,-5314,457,54,-744
274,18530,2546,2689,2230,-2556,-3124,-134,1603,-440
275,19774,2897,2691,2718,-326,-6300,-198,689,-894
276,20611,2090,2691,1980,-1050,-4564,-137,997,-582
277,20611,2744,2691,-106,-304,-2488,-98,115,-2329
278,21340,2603,2690,1446,-2704,-4778,-221,-899,-1330
279,21340,2813,2690,1156,-1064,-4860,28,-336,-2082
280,21998,2657,2690,4300,1204,-2518,-41,-471,-4021
281,21998,2490,2692,3132,416,-4824,-221,-477,-3529
282,22392,2517,2689,3144,-232,-4968,21,181,-2612
283,22380,2784,2691,2230,634,-2874,-179,44,-4590
284,22380,2495,2690,1414,2082,-3320,11,727,-4490
285,22332,2615,2688,3300,2662,-9426,212,641,-2150
286,22332,2721,2691,2450,1602,-3706,-431,359,-5047
287,22129,2767,2689,4624,-1480,-4598,463,-92,-4802
288,21938,2767,2688,4846,-198,-7952,-134,695,-5789
289,21938,3074,2689,2554,3726,-5922,-389,667,-6143
290,21699,2588,2688,2804,-436,-1700,906,540,-4575
291,21699,2976,2688,40,2484,-4164,111,54,-3856
292,21268,2825,2688,-402,158,-3322,-179,209,-4186
293,21268,3202,2689,2770,602,-8598,114,310,-3782
294,20742,2553,2688,4096,-780,-1840,-11,-238,-5840
295,19905,2855,2689,1924,-1152,-2278,-199,-20,-4720
296,19905,3081,2689,1496,3848,-7556,-605,752,-3738
297,18793,2707,2688,1792,-634,-4548,644,495,-5188
298,18793,2908,2689,4784,-3262,-338,-134,-249,-4982
299,17944,2804,2689,-1818,2428,-6906,-525,-238,-3785
300,17944,2914,2688,-600,1698,-4192,250,362,-3476
301,17275,2901,2686,-482,2198,-7038,30,-106,-3010
302,17107,2862,2688,706,828,-5202,11,-944,-2032
303,17107,2788,2689,-1756,-684,-2092,15,-57,-2008
304,17107,2854,2689,-2214,-784,-1782,605,-569,806
305,17107,2697,2687,-1064,-1650,-2298,-18,-524,20
306,17035,2673,2688,1734,-206,-5446,44,-493,-888
307,17035,2861,2689,-106,-2260,-2612,444,56,-204
308,17047,2771,2689,34,-730,-3624,-205,-1093,-325
309,17035,2930,2690,1036,-778,-5812,337,476,-4776
310,17035,2839,2688,702,-434,-4156,157,-305,-1386
311,17047,2728,2690,-2322,-932,-1256,-108,82,-729
312,17047,2706,2689,772,-604,-314,198,-423,-449
313,17035,2750,2689,-952,394,-1752,302,-712,-2032
314,17035,2728,2689,794,-160,-5752,44,-121,-1566
315,17047,3094,2690,-56,-38,-6474,244,-54,-390
316,17047,2580,2689,-352,978,-192,438,638,-1766
317,17047,2899,2689,94,-492,-1034,292,-553,-1690
318,17000,2772,2689,370,-1364,-880,-377,901,-178
319,17000,2900,2690,932,968,-4370,31,-407,-953
320,16820,2873,2691,-1016,-1048,-564,544,-566,-555
321,15887,2725,2689,-1960,-76,-5206,-205,155,-797
322,15887,2768,2690,1066,972,-4804,315,-1255,-1920
323,14584,2698,2690,-2188,2142,-7208,-192,-1010,-599
324,14584,2801,2689,2916,-728,-1066,-247,698,3043
325,13616,2898,2688,-294,298,-6316,-221,-1045,2878
326,13616,2578,2688,-238,-1720,-5904,-1003,927,2846
327,13078,2823,2689,-3584,964,-4332,-196,-1481,2463
328,12910,3036,2687,-6036,140,-1698,-24,28,2763
329,12910,2712,2688,458,-366,-5762,-657,326,1484
330,12827,2827,2688,-578,-1636,-6968,-89,-181,3542
331,12827,3075,2690,-2334,2860,-5902,-63,418,2873
332,12743,2589,2690,-1556,314,-1424,-534,95,5988
333,12743,2672,2688,-4004,-1898,-5632,215,311,3267
334,12659,2850,2689,-2164,494,-2312,-767,619,7019
335,12324,2688,2688,-5992,2122,-3978,69,247,2961
336,12324,3130,2689,-1100,978,-3536,176,-759,3642
337,12133,2830,2690,-2088,-1758,-3740,60,355,3786
338,12133,2585,2690,-2486,1020,-3492,128,-207,3766
339,12037,2778,2687,-4430,-864,-1512,-85,-845,6450
340,12037,3216,2687,-4400,1662,-5198,179,-57,4131
341,11978,2662,2688,-2534,1294,-6574,-586,193,8897
342,11978,2824,2688,-926,-3856,-4056,560,1603,2003
343,11978,2826,2689,-956,1540,-5792,718,-686,5012
344,11966,3017,2688,-4522,-42,-2828,256,780,3120
345,11966,2823,2689,1014,-3424,-5434,1086,-982,2713
346,12217,2852,2689,-4012,1146,-6340,-441,237,6571
347,12217,2886,2688,-1970,-38,-3448,-557,-89,4800
348,12671,2907,2689,-594,-1610,-5620,-354,-1074,7509
349,13090,2758,2689,-2046,520,-6256,-1199,746,5711
350,13090,2862,2690,-4336,1452,-3164,-63,35,3486
351,13759,3036,2689,-3034,-3100,-6004,-151,1295,3539
352,13759,2560,2687,-3266,-2108,-1840,-838,311,6542
353,14178,2716,2689,-4152,-1824,-6722,-205,174,5652
354,14680,3048,2692,-1662,-1168,-5580,-641,98,8496
355,14680,2230,2691,-1426,-2212,-4318,127,-2059,3975
356,15062,2796,2691,-5620,-1884,-2916,647,-337,2206
357,15062,2867,2692,-826,-542,-574,376,775,1962
358,15110,2799,2687,-1588,266,-8744,341,-1118,3200
359,15110,2617,2688,-2114,1306,-3136,-489,1292,356
360,15756,2858,2692,-1384,-1484,-2626,466,-255,615
361,16808,2529,2690,380,652,-7702,-98,562,3256
362,16808,2752,2690,406,-1958,-4088,-37,-531,1965
363,16976,2590,2690,-2274,418,-6506,99,1508,989
364,16976,2917,2688,2510,192,-2358,344,54,591
365,16976,2496,2691,-516,-184,-3436,-124,654,2979
366,16976,3093,2692,-572,1036,-1136,414,250,-1787
367,17023,2198,2689,2400,1128,-6580,305,-877,-1758
368,17047,2632,2688,-8,784,-3948,-160,323,638
369,17047,2655,2689,2066,-1260,-4492,302,-409,-1923
370,17035,2503,2690,1004,-1050,-5942,618,-210,-423
371,17035,2594,2689,-204,-866,-3722,166,543,-617
372,17047,2576,2690,-106,822,-4062,-670,-947,3721
373,17047,2605,2689,1188,1086,-5882,37,-68,-676
374,17035,2622,2690,-250,-1186,-642,450,228,-1463
375,17047,2389,2690,-1854,-218,-2510,622,286,444
376,17047,2694,2690,-638,-1234,-2518,437,-385,-1024
377,17047,2599,2692,-1744,812,-4202,-47,-185,-782
378,17047,2738,2689,138,-1186,-3064,-347,317,459
379,17047,2574,2689,792,-352,-3880,-357,9,193
380,17047,2781,2690,-1950,2390,-3310,134,819,-1448
381,17047,2155,2690,914,1660,-4210,127,-592,96
382,17047,2892,2689,-1682,860,-1656,-195,536,40
383,17047,2724,2690,758,-916,-312,-512,-131,87
384,17047,2375,2688,-102,770,-3302,11,-1763,500
385,17047,2966,2688,-1996,1318,-1036,-609,-205,1081
386,17047,2329,2690,-572,-1160,-1890,383,-204,-92
387,17035,2607,2690,-760,-770,-5986,237,336,-685
388,17035,2669,2688,-56,1518,-4862,-747,555,-988
389,17035,2603,2690,-786,796,-2726,153,-23,-10
390,17035,2675,2690,1258,2404,-5142,-89,206,235
391,17047,2509,2688,-556,4658,-5930,215,-648,-228
392,17047,2745,2690,-678,-572,-5548,-8,12,677
393,17047,2526,2689,710,-1084,-5008,-96,263,-284
394,17035,2600,2689,-256,132,-4384,44,292,-499
395,17035,2564,2691,654,-2228,-6352,256,-26,-885
396,17047,2632,2691,4648,-1458,-5792,509,-572,-1124
397,17047,2543,2691,392,-1004,-1548,28,-216,-434
398,17035,2546,2689,238,218,-4910,-63,146,-51
399,17035,2512,2688,342,-1634,258,127,-325,-1171
400,17035,2572,2688,-694,2108,-914,-189,491,-508
401,17035,2560,2690,556,1852,-4532,421,-102,-688
402,17035,2580,2690,-874,626,-4622,-306,-264,-526
403,16976,2660,2691,-1312,126,-3002,-476,89,-1
404,16976,2813,2690,480,-414,-8716,-353,-235,155
405,16904,2358,2688,102,-2666,-2680,141,232,161
406,16904,2626,2689,2026,-1190,-2452,709,702,-45
407,16270,2604,2690,2412,1386,-2306,-38,958,-378
408,15098,2687,2688,-1760,-766,-1818,-89,-490,-299
409,15098,2589,2690,1834,-474,-6974,331,848,-4157
410,13950,2667,2689,-2052,-1020,-5872,331,-480,-929
411,13950,2565,2688,-3548,-450,-7278,589,-61,515
412,13293,2632,2690,1616,-324,492,254,111,1175
413,13078,2594,2689,-1726,1340,-4840,285,-420,1956
414,13078,2591,2686,542,-50,-5902,-444,765,1546
415,13054,2685,2689,952,-684,-4902,1045,460,-461
416,13054,2717,2689,-2132,-2232,-6828,760,-359,1393
417,13090,2607,2690,-3038,-1712,-4384,18,803,4043
418,13090,2662,2688,-1126,1650,-5956,-67,-274,3029
419,13078,2785,2688,-2616,4210,-9224,-528,685,2987
420,13006,2701,2690,-1446,3784,-3244,-179,-474,3132
421,13006,2733,2690,-3010,2936,-5154,-215,-414,3839
422,12779,2712,2688,-3422,1390,-2362,279,-814,2669
423,12779,2597,2691,-2572,-778,-3972,573,-1166,4169
424,12659,2972,2690,586,1224,-4298,-112,-424,1417
425,12659,2551,2688,854,-1994,-7446,-121,578,3768
426,12492,2705,2687,-168,-1028,-2756,11,266,4835
427,12348,2888,2689,-2284,2280,-2848,-205,-706,4950
428,12348,2273,2690,-2864,1464,-6388,540,-280,4019
429,12217,2687,2689,-3198,702,-7732,214,-239,4010
430,12217,2901,2690,-5268,2052,-4834,-338,-414,4278
431,12109,2405,2688,-3662,-1668,-3810,-331,-527,4591
432,12109,2633,2687,-2294,-160,-1064,-21,-219,3583
433,12133,2714,2690,-7262,788,372,144,-1086,3854
434,12372,2661,2692,-4582,18,-3872,-153,184,4859
435,12372,2673,2687,-3754,-2808,-4740,50,423,6203
436,13018,2765,2687,-928,-1464,-3892,-273,1356,3262
437,13018,2666,2688,-980,-1716,-3262,-322,558,5531
438,13891,2621,2690,-782,2034,-3956,14,-1500,6686
439,14799,2436,2691,-2604,-992,-976,-163,-16,3612
440,14799,2646,2690,-10066,-248,-2738,660,419,5210
441,15947,2610,2689,-6828,584,-4712,-80,1949,3636
442,15947,2428,2688,2922,1510,-2424,-40,727,4835
443,16964,2612,2691,-3384,-38,-7004,-137,206,3091
444,16964,2587,2694,3118,-474,-3104,-31,530,-1316
445,16964,2379,2691,900,-1010,-3296,305,-2312,-22
446,16964,2658,2691,238,-1138,-4176,518,651,353
447,16964,2721,2691,1386,140,-4306,34,-197,382
448,16988,2564,2688,-996,982,-4132,137,251,745
449,16988,2560,2689,2462,1752,-5476,-619,-433,2958
450,17011,2615,2690,-1230,900,-5168,-189,-1166,547
451,17011,2381,2690,-314,1280,-2248,11,12,382
452,17023,2506,2692,1174,1600,-5622,467,-543,-275
453,17023,2738,2690,-1434,-1426,-6322,182,848,-664
454,17023,2374,2688,-374,-844,-5466,-435,37,1529
455,16988,2453,2689,-2260,132,-3554,-192,639,-1873
456,16988,2629,2690,3230,-234,-3910,-550,85,591
457,16988,2766,2688,-958,-566,-6290,286,143,-260
458,16988,2035,2690,2396,-1742,-632,725,-108,-269
459,16988,2691,2689,-1764,-424,-4814,-92,-518,-744
460,16976,2609,2689,-162,-932,-3990,-945,171,276
461,16976,2377,2689,-50,-474,-6840,-415,-661,126
462,16964,2603,2689,2556,580,-4890,-125,329,391
463,16964,2553,2688,-556,-450,-1294,757,-785,-60
464,16976,2537,2691,-1220,112,-1656,631,143,-122
465,16976,2672,2691,-692,0,-2886,-650,-73,-862
466,17047,2285,2689,434,48,-3490,-654,742,-290
467,17215,2522,2690,14,102,-1744,-105,-47,804
468,17215,2560,2692,1418,-1142,-5974,263,124,158
469,17920,2273,2690,-824,1224,-5690,518,-61,90
470,17920,2533,2690,1132,1628,-7578,-447,968,-1516
471,18650,2590,2688,1360,-2044,-4436,-89,37,-1215
472,19821,2122,2690,1482,12,-1248,-109,860,-1056
473,19821,2430,2691,4286,-644,-5748,-254,-280,-2580
474,21519,2413,2689,2474,426,-6176,460,-763,-944
475,21519,2567,2689,-3848,200,-1164,705,441,-2229
476,22835,2156,2691,3680,-1894,-6342,-357,1241,-994
477,22835,2600,2689,-2804,1270,-9816,-1326,1241,1322
478,23373,2148,2692,2334,-1422,-5696,-986,295,-2813
479,23500,2248,2692,-544,-488,-3590,189,581,-4932
480,23500,2638,2689,1186,334,-690,-18,-194,-2842
481,23408,2214,2688,4206,-3580,-2762,-273,825,-4224
482,23408,2373,2690,3440,-1720,-4512,-195,-280,-3936
483,22858,2059,2692,2806,-638,-4386,418,1140,-4746
484,22858,2451,2689,3246,-1664,-6016,53,311,-3962
485,21687,2190,2690,1810,-3300,-868,199,984,-4345
486,20060,2444,2691,2052,790,-3690,-118,25,-4664
487,20060,2254,2689,2558,-1704,-4292,176,114,-5362
488,19008,2363,2690,2348,-528,-6262,598,672,-5901
489,19008,2245,2690,2112,78,-6398,457,57,-5327
490,18195,2386,2690,3724,-1460,-5272,192,-1645,-5309
491,18195,2494,2691,-2700,-1410,980,-1025,-2100,-3025
492,17466,2244,2690,-1358,2892,-4292,-583,1445,-1374
493,17107,2308,2684,3216,-1430,-3546,508,-607,-1884
494,17107,2386,2685,-2140,-170,-5776,489,-1008,-1958
495,17035,2314,2690,-628,86,-2296,880,1413,-2601
496,17035,2320,2688,-934,4400,-4378,354,-1423,-1631
497,17047,2427,2687,-3286,1014,3106,257,-337,-652
498,17035,2333,2690,2638,-756,-7128,593,114,-885
499,17035,2348,2690,-320,2296,-4372,95,174,-567
500,17035,2384,2690,210,1176,-3158,186,206,-119
501,17035,2451,2689,-854,-570,-420,651,794,-1805
502,17035,2363,2690,1280,934,-5390,886,-268,-1065
503,17035,2605,2689,162,1640,-1832,-292,193,-968
504,16988,2223,2689,642,212,-2776,395,-7,-591
505,16748,2433,2691,-98,1312,-4574,615,-353,-1731
506,16748,2502,2689,-908,-130,-4646,-96,1088,-449
507,15768,2422,2689,580,-196,-2888,598,21,-1065
508,15768,2689,2690,-846,1384,-7126,221,-1258,-1283
509,14656,2296,2691,-5394,2848,-3912,95,-547,-806
510,14656,2432,2689,468,846,-3528,367,917,-685
511,13723,2489,2688,-3986,1170,-3104,-315,-1645,860
512,12838,2348,2688,-1968,-544,-2936,515,-140,748
513,12838,2577,2688,-3204,1736,-1560,-193,237,2174
514,12492,2450,2687,-1680,-1406,-4204,-834,-1728,2139
515,12492,2372,2688,-2750,-1576,-3876,-380,241,4031
516,12480,2233,2688,-4140,290,-1782,-344,-785,3041
517,12480,2680,2686,-4906,1258,-3940,-186,228,3344
518,12683,2502,2690,-2288,-2044,-4328,385,237,3153
519,12850,2255,2689,-1684,-1506,-4846,124,-23,2990
520,12850,2460,2690,-4104,1640,-3002,-712,698,4664
521,12838,2672,2688,-1222,-372,-7180,-557,901,3972
522,12838,2260,2689,-290,-2686,-2810,18,-149,4435
523,12803,2420,2690,-2336,-744,-1802,208,-592,5516
524,12803,2281,2690,-2658,-2096,-4226,157,-162,3987
525,12791,2478,2688,124,-1068,-4556,-92,432,3630
526,12731,2431,2688,-5192,1260,2842,-222,2,4600
527,12731,2420,2690,-808,-1040,-5190,-56,860,5174
528,12695,2499,2691,-794,-1170,-6142,-179,-67,3984
529,12695,2335,2689,-3974,-1808,1566,-131,-474,3742
530,11978,2433,2689,-2332,1568,-9670,-280,590,3486
531,11236,2482,2689,-2470,-1742,-3008,-667,304,4644
532,11236,2448,2690,-1370,-376,-2818,143,-569,4402
533,10500,2455,2691,-2638,1384,-4126,-321,378,4718
534,10500,2501,2691,2264,-1304,-4144,-386,-719,4048
535,10500,2522,2690,-8324,-1974,-2374,124,-687,5914
536,10500,2510,2689,-4156,-54,-5218,179,609,4788
537,10519,2514,2688,-152,-192,-508,18,-23,4402
538,11511,2459,2689,-4764,352,-552,531,-74,4446
539,11511,2512,2689,-4400,1284,-5664,-418,695,4844
540,12731,2541,2689,-4578,316,-5668,-2010,-702,6931
541,12731,2605,2687,-2374,-254,-5448,8,794,5549
542,14118,2599,2689,-1444,-934,-4646,-1006,-220,6551
543,14118,2620,2691,-3866,2860,-2240,124,-328,7267
544,15612,2123,2690,-8288,4290,-6654,-367,1250,7983
545,16964,2524,2689,5302,-526,-9274,-115,1708,6380
546,16964,2526,2691,4974,1106,-6294,-73,82,2513
547,16964,2591,2693,2090,-1626,-4856,-27,50,1602
548,16964,2483,2693,-404,498,-3304,664,381,745
549,16964,2504,2692,1924,298,-5760,-137,603,706
550,16964,2398,2690,-126,-2574,774,272,-264,-128
551,16976,2513,2688,160,-6,-336,-599,-191,394
552,16988,2362,2688,-166,2994,-5564,-389,98,-143
553,16988,2588,2691,-972,2748,-8164,-606,-493,459
554,17000,2516,2691,-808,-1068,-2912,-402,-391,438
555,17000,2387,2689,-1478,1788,-2184,321,-407,-302
556,16988,2467,2690,-2714,428,-1248,-134,91,-110
557,16988,2617,2689,1382,-1652,-4550,505,-667,-535
558,16988,2358,2690,2384,-446,-6668,43,850,-800
559,16988,2500,2690,702,-1844,-234,444,6,-909
560,16988,2460,2689,926,-1342,-5194,357,-502,-1245
561,17000,2477,2688,1464,-1248,-2840,-157,1226,46
562,17000,2136,2689,280,-1280,-522,425,-439,-750
563,17000,2613,2689,1032,208,-3332,-121,869,-1557
564,17000,2315,2691,-290,-1142,-2242,-396,-147,2581
565,17000,2203,2690,158,1220,-5714,-157,-77,-782
566,17011,2345,2688,2772,-1698,-7412,-554,-93,-644
567,17011,2562,2688,-284,294,-2274,114,-598,-1386
568,17023,2445,2690,-1420,222,758,-5,34,317
569,17023,2278,2689,1092,-1402,-2980,308,1089,-2017
570,17000,2446,2689,2042,4,-4884,421,305,-1277
571,16988,2424,2690,-1522,710,-3890,-250,-73,-888
572,16988,2481,2689,856,706,-3880,-76,1406,-1327
573,16976,2836,2690,1632,-358,-4560,-231,-810,-201
574,16976,2168,2690,-174,-714,-4624,344,-219,220
575,17035,2412,2691,1888,-1252,-5482,1532,587,-3349
576,17035,2611,2691,-992,1570,-4328,344,85,43
577,17215,2203,2690,678,-1436,-4062,-115,117,-87
578,17801,2405,2688,-828,1046,-4168,-76,632,718
579,17801,2313,2690,2536,-816,-6920,-554,549,129
580,18602,2440,2691,-1212,1424,1300,547,-223,-549
581,18602,2216,2691,1888,-734,-6034,1258,104,-2226
582,19367,2404,2690,1520,-2226,-3062,115,625,-980
583,19929,2382,2689,4640,1304,-5902,-386,336,-1262
584,19929,2415,2690,-942,-1222,-5022,-954,199,-1710
585,20156,2603,2690,2264,412,-4324,-463,143,-3768
586,20156,2210,2689,1990,-1204,-3072,247,-1175,-1619
587,20264,2390,2688,2210,-1906,-3642,124,-70,-1404
588,20264,2417,2690,2548,-1418,-5672,599,-23,-3234
589,20276,2257,2691,1750,-916,-4934,-347,383,-2763
590,20264,2430,2688,766,144,140,-444,-436,-2928
591,20264,2319,2689,2864,-210,-9302,50,685,-3031
592,20288,2388,2690,226,458,564,146,266,-2595
593,20288,2448,2691,2404,3234,-5028,586,-750,-2939
594,20228,2353,2689,856,-404,-3264,738,-115,-2262
595,20228,2452,2688,1040,-742,-750,-160,-236,-2981
596,20001,2371,2690,1886,2286,-5934,-282,-474,-3284
597,19128,2662,2690,1752,858,-3408,-260,-172,-2633
598,19128,2287,2689,1106,-1302,-1464,308,-356,-1292
599,17932,2395,2688,-70,-1404,-3558,602,810,-2789
600,17932,2459,2689,634,-746,-4634,1022,1178,-7835
601,16964,2308,2688,-624,-556,-2118,547,-1782,-4566
602,16964,2508,2690,-5538,1330,-3054,-896,-684,-2324
603,16976,2383,2689,-1006,-44,-3954,-389,876,-1542
604,16964,2387,2686,-2254,-970,-1632,492,-1684,-1811
605,16964,2447,2686,-1272,-248,-6364,279,136,-134
606,16976,2442,2689,340,-702,-2214,618,559,-352
607,16976,2347,2691,-746,684,-7384,-218,92,-169
608,16916,2552,2689,756,468,-3988,-1138,-439,-95
609,16916,2095,2690,-2326,4994,-4880,-754,-516,-25
610,16234,2599,2690,1328,1534,-4146,-334,-877,-1360
611,14931,2306,2689,1000,1586,-1748,631,-169,58
612,14931,2470,2690,1728,156,-7056,728,-620,-885
613,13879,2412,2691,-1884,686,-4430,-8,-267,288
614,13879,2346,2689,-1724,1448,-5956,-841,-102,2427
615,13245,2551,2688,-538,-1592,-5326,-832,-131,1157
616,12827,2243,2688,-1772,-1640,-2808,922,-124,1870
617,12827,2511,2691,-1524,612,-2230,234,158,1991
618,12551,2433,2691,-3862,-868,-2912,57,171,1947
619,12551,2587,2690,796,436,-5622,-925,-80,2908
620,12049,2298,2687,-4376,1606,-1800,-861,-77,3530
621,12049,2334,2689,-3780,1094,-9506,66,-1246,2890
622,11750,2511,2691,-1596,-2592,-4568,-138,-175,3704
623,11619,2387,2690,-4132,968,-1152,873,-172,3636
624,11619,2560,2687,-3564,1662,-5544,-138,47,4019
625,11535,2284,2688,-2458,-1064,-3956,-570,1015,5109
626,11535,2424,2690,-1694,-880,-2148,221,-198,3038
627,11535,2577,2689,-3470,-1192,800,24,164,5145
628,11535,2353,2690,-2568,-822,-5030,705,-604,5077
629,11511,2381,2691,-114,-10,-7000,-254,-611,5469
630,11404,2464,2691,-2488,236,-4756,66,-1,3975
631,11404,2368,2687,-1790,-1048,-7732,-211,-607,4897
632,11176,2590,2688,-372,426,-1836,-509,1101,4588
633,11176,2488,2690,-2510,798,-516,411,-528,4623
634,10997,2377,2690,-5962,3168,-4988,-79,-54,4384
635,10997,2527,2691,-3564,-1932,-5984,105,120,4102
636,10985,2372,2690,-2166,-774,-4932,376,638,5074
637,10961,2374,2689,-890,-216,-7940,-37,98,4337
638,10961,2340,2689,-1170,-1228,-1752,-292,-340,3907
639,10758,2404,2691,-126,-1370,-3156,976,-569,-322
640,10758,2324,2690,614,-394,-7416,143,15,4918
641,10603,2392,2690,-1758,1160,-4624,-619,-43,5469
642,10603,2474,2691,-4870,-474,-4436,-221,73,6041
643,10500,2317,2687,-72,-952,-8210,-205,777,4844
644,10500,2418,2689,-6244,538,1944,-803,88,5911
645,10500,2354,2689,456,786,-5606,221,901,5301
646,10734,2671,2689,-2660,-442,-2968,-495,-1096,2537
647,10734,2282,2691,-2818,-614,-4118,311,295,5835
648,11631,2359,2691,-4322,-1400,-3582,176,829,5858
649,12492,2276,2687,-3352,-2058,-8552,286,-248,4060
650,12492,2336,2689,-3016,-1834,-1384,544,374,5496
651,13652,2387,2691,-1576,-1400,-5040,354,-439,4343
652,13652,1992,2690,-8556,-194,-5938,-260,1095,6987
653,14453,2615,2691,938,-710,-732,-338,101,5107
654,14453,2177,2688,-680,164,-6254,8,-693,4600
655,15194,2215,2692,-208,-444,-4424,279,-486,3338
656,15768,2207,2693,488,1270,-3064,15,-80,4125
657,15768,2389,2689,-308,-3310,-1440,253,434,3651
658,15840,2394,2688,134,-1388,840,-477,456,3238
659,15840,2336,2690,52,738,-2678,147,-537,1570
660,15756,2563,2692,-2468,146,-5100,108,371,2498
661,15756,2023,2689,-470,218,-3494,347,-740,1870
662,15828,2321,2690,-1014,296,-7984,-544,517,1646
663,15852,2471,2689,82,1766,-2864,-328,1019,809
664,15852,2299,2689,-1320,1050,-1638,176,-861,1346
665,16174,2368,2691,-346,-1240,-7272,118,1108,1632
666,16174,2283,2689,1006,-588,-2696,-767,-995,8030
667,16521,2471,2689,-3228,4160,-5572,-1381,368,771
668,16521,2495,2689,140,404,-5258,-99,-125,553
669,16856,2369,2690,840,-924,-4082,-25,-246,977
670,16964,2513,2690,282,548,-2084,43,-706,827
671,16964,2540,2689,-154,3502,-7594,383,-524,709
672,16964,2735,2690,-162,1746,-4458,-224,12,839
673,16964,2230,2689,420,-1792,-5448,137,133,854
674,16976,2488,2690,1554,-234,-5010,-579,889,-10
675,16988,2555,2690,-292,-174,-3378,-89,225,25
676,16988,2601,2689,2044,-1234,-3842,360,-214,-63
677,17000,2462,2690,-2504,384,-30,-11,-975,-635
678,17000,2561,2691,-2532,274,-3216,1073,425,-2058
679,17035,2420,2690,-430,-112,-3078,237,-849,17
680,17035,2348,2688,852,-1438,-4166,-521,-153,627
681,17035,2349,2689,-786,-2100,-2960,-34,876,-428
682,17131,2373,2689,-148,-382,-6216,176,-1,-437
683,17131,2248,2691,1884,-216,-4908,46,-331,801
684,17753,2380,2690,-1266,-78,-4392,128,-86,580
685,17753,2281,2689,2946,-1864,-6888,-344,-363,612
686,18542,2513,2688,2510,-98,-7536,-483,866,-652
687,18542,2396,2690,460,-1538,-1974,-8,898,-991
688,18853,2370,2690,-20,-292,-3766,386,-96,-1666
689,19020,2420,2691,1642,838,-5830,354,447,-2415
690,19020,2385,2690,3112,-2244,-2940,115,-562,-311
691,19020,2443,2690,988,-2824,-2592,408,88,-1979
692,19020,2588,2690,374,-2622,-2014,-83,-988,-2179
693,18948,2120,2689,256,-268,-5646,-786,425,-210
694,18948,2463,2690,2514,-154,-7188,202,794,-1840
695,18865,2331,2690,2024,-458,-4980,498,-163,-1932
696,19140,2300,2690,-1098,-374,-1634,-305,790,-1958
697,19140,2280,2690,1562,-610,-7026,-273,19,-929
698,19702,2306,2691,700,-1532,-3862,-370,492,-2126
699,19702,2256,2691,1624,726,-5592,385,-118,-1507
700,19917,2430,2689,478,-1636,-3472,308,-753,-2114
701,19869,2421,2690,976,332,-5026,14,847,-2400
702,19869,2108,2691,1120,-114,-3902,-73,797,-2969
703,19487,2375,2688,2098,-510,-5768,347,329,-6190
704,19487,2312,2692,70,928,-2458,150,282,-3060
705,18793,2135,2693,792,-1018,-4218,11,247,-2161
706,18793,2331,2688,-282,-308,-1418,31,-575,-3753
707,17908,2228,2690,1138,-1106,-4748,-67,-271,-2288
708,17047,2359,2689,-1312,-1794,-5054,-289,-680,-1666
709,17047,2274,2688,2802,-176,-3802,-370,15,-1967
710,17047,2387,2689,-2374,1016,724,37,-601,-2209
711,17047,2374,2689,-1812,1032,-5630,111,311,-1563
712,17035,2350,2690,-1208,-194,-318,199,-378,-1657
713,17035,2515,2690,532,-1510,-5438,605,238,-1684
714,16964,2233,2689,1316,-30,-3970,-134,-724,-287
715,16964,2608,2688,-182,-754,-4898,-141,123,-1996
716,16964,2136,2689,538,-450,-4696,-240,228,842
717,16964,2249,2689,-188,-678,-4084,-218,-249,-325
718,16964,2209,2690,-514,-38,-2942,179,196,-446
719,16964,2280,2689,530,-636,-6080,-112,440,-437
720,16964,2349,2689,-1130,2402,-2856,-854,-334,-732
721,16976,2284,2690,4298,-302,-5872,396,-156,-3273
722,16976,2285,2689,-836,3922,-5744,-273,-153,-688
723,16976,2383,2690,-1314,-282,-1004,-305,-740,-974
724,16964,2521,2691,-1238,3744,-5296,-783,256,-552
725,16964,2208,2690,576,-1154,-4086,-125,-563,-670
726,16976,2382,2688,624,-2186,-1742,59,-256,-1484
727,16976,2425,2689,380,2886,-4310,250,-10,-402
728,16892,2440,2691,2180,-678,-5060,-173,-360,-490
729,16748,2640,2689,256,-218,-5542,505,311,-1062
730,16748,2177,2689,-1606,838,-3746,-99,79,-257
731,16163,2431,2689,-1438,1244,-3856,-551,-39,-384
732,16163,2505,2689,320,-3674,-6126,-93,475,249
733,15720,2477,2690,-1032,228,-3296,366,-64,736
734,15541,2674,2688,-1356,112,-1068,485,533,-81
735,15541,2085,2688,-1604,-586,-2510,-244,-172,874
736,15565,2487,2689,-400,-1228,-5142,-24,-19,1013
737,15565,2471,2688,-596,2070,-7422,-525,-71,1393
738,15397,2417,2688,914,-2106,-4830,-102,174,1148
739,15397,2435,2690,-360,1350,-7542,447,110,208
740,15062,2457,2690,-712,590,-1132,169,44,146
741,14453,2427,2690,-200,52,-4828,53,-998,792
742,14453,2284,2689,-1340,-1286,-1132,325,1191,291
743,14058,2424,2689,-1808,702,-2286,-589,-416,3005
744,14058,2299,2688,382,-1642,-6468,318,-137,2080
745,13879,2095,2689,-1404,1994,-4370,185,-207,1915
746,13879,2839,2689,-928,556,-5808,56,187,2460
747,13867,2251,2690,-194,-1366,-4302,699,301,2083
748,14070,2351,2690,606,-720,-3324,137,-296,2545
749,14070,2545,2691,-1552,2322,-5566,-105,-391,1838
750,14429,2422,2688,208,-240,-6560,-41,818,1814
751,14429,2651,2690,1468,696,-3274,102,-35,2239
752,15074,2172,2689,-4536,2118,-296,312,-353,2097
753,15074,2494,2689,-2348,-98,-1876,66,1063,1089
754,15445,2495,2691,-38,-994,484,279,405,2254
755,15935,2498,2689,658,-2114,-4092,-221,-498,1623
756,15935,2523,2691,-906,1512,-1572,-473,-277,1817
757,16055,2554,2691,556,746,-3736,489,240,-143
758,16055,2478,2688,-798,-608,-4804,321,-137,1355
759,16043,2548,2690,1250,-1438,-3586,-344,491,2371
760,16103,2282,2690,-366,-394,-1664,495,396,1075
761,16103,2545,2688,-1824,1102,-1446,-450,-670,1520
762,16318,2492,2689,-196,218,-6736,-586,-83,3194
763,16318,2308,2690,1036,-622,-3706,-41,-347,2357
764,16904,2455,2690,-2474,1636,-1820,-561,-1236,2280
765,16904,2324,2689,1018,-874,-3606,295,9,683
766,16904,2619,2690,-1522,-868,-3496,212,143,476
767,16892,2388,2689,-1008,-1078,-6146,-121,558,963
768,16892,2312,2689,990,-106,-5048,-783,756,-175
769,16509,2318,2689,1702,-394,-5406,-212,-137,-782
770,16509,2318,2691,50,142,-6352,360,-581,565
771,15720,2272,2691,-266,-1270,-1130,305,418,-372
772,15720,2234,2690,2590,-946,-3488,63,-912,-305
773,15062,2482,2690,-1820,-180,66,-2,12,-22
774,14787,2312,2689,-2110,1620,-2098,408,-334,-2998
775,14787,2311,2689,-2758,-1112,-3102,-222,-69,37
776,14405,2249,2688,-2934,1600,-5594,-212,-1243,494
777,14405,2387,2689,-4460,-1204,-4712,470,41,1352
778,13675,2354,2689,-1614,1964,-5860,146,1384,983
779,13675,2391,2689,-2142,-586,-3920,301,-1192,1405
780,12898,2311,2689,-1930,-1770,-2792,-109,1120,2598
781,12599,2511,2691,-3622,618,-3522,-331,-696,2646
782,12599,2260,2689,-2346,-2176,-8260,431,152,2469
783,12492,2256,2688,-1276,1036,-5300,-34,726,4352
784,12492,2314,2689,-3236,-1078,-2642,189,-766,2498
785,12468,2304,2691,-2348,318,-5820,-435,663,5590
786,12468,2197,2690,-2448,160,-252,-169,-896,3465
787,12372,2606,2689,-2348,-148,-6212,-82,108,2955
788,11906,2380,2690,-1726,1204,-4244,72,-20,3217
789,11906,2206,2691,-2976,122,-5218,60,-410,2604
790,11643,2242,2690,-3660,778,-3524,402,19,4862
791,11643,2376,2690,-2244,-2106,-4612,11,-99,4830
792,11416,2462,2689,-134,-168,-7222,117,-509,-729
793,11212,2306,2692,-2872,-1102,-1342,447,-432,3931
794,11212,2193,2690,-3598,-220,-2070,-396,21,6860
795,11200,2402,2691,258,-1042,-5622,-357,9,5003
796,11200,2371,2689,-4514,32,-2882,-392,1019,5277
797,11200,2322,2688,2658,-3536,-4796,-744,1251,7019
798,11200,2345,2689,-3782,1824,-5602,453,-249,4296
799,11224,2264,2690,-2726,-952,-2908,266,724,4709
800,11212,2394,2693,-3234,2842,-3438,350,-1449,4116
801,11212,2346,2689,-3452,-1526,-3312,240,279,5879
802,11188,2399,2687,244,-1364,-4072,143,-112,4281
803,11188,2393,2690,-5434,1570,-2032,492,733,6268
804,11093,2369,2689,816,-1236,-7846,476,-102,4231
805,11093,2340,2689,-3636,2384,-2648,-76,200,4939
806,10973,2604,2688,412,800,-6490,431,533,5837
807,10878,2111,2689,-786,-2896,-68,593,-997,4841
808,10878,2485,2688,-5992,4136,-912,-60,-341,3241
809,10913,2462,2690,-2310,922,-4576,902,-327,5829
810,10913,2425,2690,-2776,-2654,-6576,654,101,5667
811,11057,2402,2689,-1784,1380,-2200,-599,676,6595
812,11057,2421,2689,-3636,-24,-4366,-424,206,5248
813,11535,2490,2686,170,-1500,-3614,144,1159,5911
814,12025,2432,2690,-2702,576,380,176,-1071,5976
815,12025,2312,2692,-3144,1516,-5176,305,-1248,6739
816,13018,2392,2691,-1098,-2938,-4274,153,-1528,4576
817,13018,2284,2689,600,772,-7176,1887,1857,3984
818,14022,2614,2688,2166,2214,-1954,-34,1882,4868
819,14787,2212,2690,474,1870,1792,118,-42,4258
820,14787,2314,2692,-4222,-2388,-2630,711,1126,3975
821,15110,2396,2691,326,1526,-2492,367,-235,5787
822,15110,2330,2689,-26,-2804,-7310,-554,-805,2808
823,15409,2354,2693,-64,-614,268,-412,-131,5731
824,15409,2225,2690,896,2496,-4826,57,-581,2752
825,15828,2481,2689,-1874,-1188,-452,-257,467,1461
826,16282,2165,2689,-18,142,-1446,189,873,1971
827,16282,2387,2689,-532,204,-38,-69,403,1932
828,16796,2334,2689,-1550,-480,-1260,-238,-175,-599
829,16796,2310,2690,-708,-1414,-1226,134,117,182
830,16964,2268,2690,-850,840,-4254,-279,721,1853
831,16964,2292,2688,-28,642,-1032,-306,-252,995
832,16964,2544,2690,696,1312,-5666,-112,-55,538
833,16976,2276,2690,-1098,842,-3534,-270,187,-420
834,16976,2306,2690,34,1802,-3556,169,-436,880
835,17107,2317,2692,2018,-1936,-6506,340,269,-1053
836,17107,2310,2690,204,818,-3946,-354,-334,556
837,17286,2250,2689,3226,-1990,-6176,-57,-27,3739
838,17286,2451,2689,-860,-1492,460,170,-1474,638
839,17681,2325,2689,1022,2204,-9428,-308,705,1154
840,17968,2409,2690,410,-778,-2472,534,-141,-499
841,17968,2278,2690,-822,1010,-6560,385,228,208
842,18183,2090,2689,1446,-1502,-4662,-599,714,-1092
843,18183,2429,2689,2082,1750,-3344,-63,-146,-759
844,18673,2564,2690,500,-2000,-4642,-189,-315,-1000
845,19128,2132,2689,2586,2900,-2148,-173,1045,-965
846,19128,2616,2690,2368,-748,-2836,456,-719,-3703
847,19200,1979,2689,2414,-1850,-1294,-218,775,-1628
848,19200,2331,2689,3240,-602,-6918,-105,682,-5147
849,19200,2325,2691,596,1266,-1876,231,-391,818
850,19200,2296,2689,2478,-832,-5604,-364,79,-1758
851,18793,2329,2689,-674,1550,-714,1206,-267,-5633
852,18076,2270,2691,2466,-794,-5244,188,174,-2041
853,18076,2556,2689,1190,3312,-5758,-225,88,-2415
854,17107,2160,2689,-1648,-742,-4214,72,-20,-2232
855,17107,2254,2689,-994,986,-6338,-137,-826,-1702
856,16988,2220,2689,-630,-784,-6620,-24,-527,1641
857,16988,2292,2689,-830,1884,-4482,266,161,-48
858,16976,2291,2690,1376,1562,-9194,-279,-346,-125
859,16976,2319,2690,-2812,2722,-1758,-244,488,-473
860,16976,2389,2689,2520,-934,-8066,-160,181,400
861,16976,2279,2689,-2520,346,1948,72,-134,-608
862,16976,2476,2690,2062,3998,-4538,-370,330,-1430
863,16976,2191,2690,-1666,2166,-2726,150,-522,-381
864,16976,2322,2690,1560,214,-6616,428,-540,-1660
865,16964,2382,2690,1402,-2474,-4722,-448,82,-903
866,16964,2379,2692,1274,2122,-5548,195,835,-1033
867,16964,2375,2690,-754,-2064,-4996,253,-214,-1262
868,16976,2422,2688,564,1534,-2156,350,835,-605
869,16976,2382,2690,302,-34,-6796,153,406,238
870,16976,2284,2691,718,-2398,-2626,156,187,-1525
871,16976,2370,2690,504,-318,-5146,53,-280,-670
872,16964,2290,2689,2572,464,-3848,-86,285,2050
873,16976,2494,2690,-390,-1424,848,515,-966,526
874,16976,2559,2689,644,-668,-7300,-34,443,-425
875,16916,2187,2691,296,-1438,-3868,-196,209,-493
876,16916,2382,2690,-1306,-466,-2464,-231,412,-1260
877,16892,2491,2689,1498,-656,-4536,-373,-115,-1162
878,16808,2277,2689,-762,-432,-2862,434,-420,-219
879,16808,2420,2690,338,1724,-4046,276,587,1145
880,16808,2478,2689,1636,-524,-6428,15,-375,-113
881,16808,2304,2689,-850,3416,-2922,-451,-201,-372
882,16856,2453,2690,296,-2928,-2546,-651,-121,-876
883,16856,2248,2690,-1082,-396,-1892,392,-201,-738
884,16964,2364,2691,-2048,536,54,105,12,503
885,16976,2513,2689,2040,-1194,-4162,415,-134,-508
886,16976,2417,2690,618,1756,-6624,-347,-201,-349
887,16976,2323,2689,998,870,-7068,-251,472,-1050
888,16976,2289,2690,812,112,-2774,134,-151,-42
889,16964,2430,2690,474,836,-6028,-260,155,-1392
890,16964,2570,2690,-716,1368,-616,34,-200,-770
891,16976,2228,2688,1878,-2332,-5466,-415,-782,49
892,16964,2474,2689,368,-1596,-5580,28,-115,-826
893,16964,2359,2689,620,418,-4926,-257,-115,-868
894,16976,2245,2691,2058,-48,-7430,8,-649,158
895,16976,2360,2689,-280,420,-4190,179,289,-275
896,16976,2271,2689,-90,-220,-3092,-21,127,-325
897,16976,2402,2691,-1266,650,-4432,66,-106,-1198
898,16964,2343,2690,1096,-1108,-7550,-680,111,-1610
899,16976,2290,2689,18,1464,-4600,-302,-42,-231
900,16976,2376,2690,-916,-240,-5648,-1122,193,3441
901,16964,2484,2690,-64,-360,-2546,-112,-198,202
902,16964,2195,2689,438,-1512,-4648,121,-226,-711
903,16976,2365,2688,752,186,-3680,-115,-182,-296
904,16916,2462,2689,-352,552,-2838,163,-181,-1419
905,16916,2333,2691,1528,-1390,-4866,-324,600,-691
906,16892,2419,2688,132,-24,-2126,-50,-1017,-776
907,16892,2353,2690,88,-658,-3530,363,228,-938
908,16904,2330,2691,-52,148,-3660,-293,-211,1355
909,16904,2240,2690,-652,-1614,-3016,205,-26,-1074
910,16916,2419,2688,776,-1088,-2834,-8,841,-676
911,16904,2381,2689,-234,740,-4168,-176,170,-779
912,16904,2578,2689,698,-1164,468,127,1091,-313
913,16892,2159,2690,-132,1976,-4140,234,-306,-691
914,16892,2378,2690,174,468,-7026,24,574,-399
915,16916,2427,2691,1910,2118,-8084,-619,339,-154
916,16916,2417,2689,-2066,3154,1122,-421,-709,-240
917,16868,2661,2690,904,4688,-7602,-703,-503,-140
918,16796,2290,2691,560,-1314,-1516,47,-57,43
919,16796,2422,2689,-1644,-1292,-5908,527,-404,-959
920,16808,2411,2690,848,794,-6126,134,355,-685
921,16808,2366,2690,346,-2652,-3626,114,-642,-1112
922,16844,2677,2690,26,-66,-2504,-716,564,-1498
923,16844,2168,2691,-186,1020,-848,92,368,-620
924,16796,2460,2690,-824,264,-6332,-102,435,-272
925,16772,2580,2689,2556,354,-6232,-919,765,-231
926,16772,2372,2690,-544,360,-1238,525,-289,-411
927,16354,2384,2691,-906,996,-5658,-1009,114,-313
928,16354,2494,2689,-1228,-762,-2184,82,-1112,-664
929,15852,2400,2691,980,1994,-6780,-157,418,-311
930,15852,2497,2690,-696,-1066,-2320,34,-601,-420
931,15577,2335,2690,-2206,-1120,-5666,438,209,161
932,15349,2406,2690,-438,328,-1124,773,-461,40
933,15349,2120,2688,-2356,-148,-5056,86,-391,874
934,15337,2708,2687,-1204,-1270,-68,105,190,526
935,15337,2225,2690,-900,678,-3914,815,-159,1145
936,15302,2345,2689,-174,-754,-9442,360,-468,155
937,15110,2424,2689,1768,308,-4230,224,508,742
938,15110,2683,2689,-4242,4792,-3374,137,-249,1151
939,14536,2236,2689,-1018,846,-6030,502,447,1001
940,14536,2453,2690,-684,-668,-2212,531,-448,877
941,14010,2444,2689,-24,984,-6336,376,575,468
942,14010,2428,2689,2976,-2436,-2380,650,-661,1481
943,13771,2411,2690,-3166,-1168,-5122,-424,-953,756
944,13592,2744,2689,464,-1520,-5032,305,1190,2083
945,13592,2205,2688,-2032,1662,-2004,372,-1002,3170
946,13508,2446,2688,-1974,-2258,-5962,143,231,1201
947,13508,2370,2691,1444,-1424,-11562,302,-204,2755
948,13257,2504,2689,600,-2556,-2756,250,-137,2537
949,13257,2723,2687,-1492,2282,-2246,-106,-275,3365
950,12827,2373,2688,-1788,-124,-3246,414,-557,3291
951,12432,2398,2689,-1438,-1848,-5600,-254,145,3123
952,12432,2524,2688,-3036,-2112,-2146,308,56,2021
953,12013,2452,2687,-696,-394,-3838,-292,892,2867
954,12013,2488,2688,-3276,-138,-4906,-309,-452,3571
955,11798,2478,2689,-1890,-488,-7128,88,996,4096
956,11798,2449,2689,4,-2076,-3032,-31,-442,5124
957,11750,2444,2687,-3522,-1412,-3100,1028,206,4570
958,11762,2464,2688,-2604,596,-3538,-215,35,5086
959,11762,2470,2689,-922,778,-7332,18,-188,4096
960,11786,2578,2689,-2502,-2038,-4622,-15,564,1726
961,11786,2355,2689,-542,-1380,-5080,-373,-677,6919
962,11738,2519,2688,-4086,1286,-6598,-196,676,4025
963,11535,2542,2688,-1538,-1928,-1844,-167,-153,4464
964,11535,2440,2690,-286,-1010,-5098,-292,-197,5036
965,11212,2480,2690,-1694,-1136,-1234,130,-156,5000
966,11212,2341,2691,-2304,-522,-3858,198,-125,4720
967,10973,2474,2690,-1918,-2194,-6334,-41,297,5905
968,10973,2436,2688,-2318,-998,226,644,-515,4847
969,10997,2455,2687,-5204,1284,-3632,-532,396,5221
970,11200,2489,2689,-1030,-2232,-4594,-173,714,5602
971,11200,2333,2689,-1792,36,-3714,205,-852,5115
972,11619,2457,2689,-2302,504,-5866,-18,555,1929
973,11619,2248,2690,-3672,-3084,-3574,-357,841,4296
974,11978,2800,2689,-1382,-1114,-6048,-580,-274,6448
975,11978,1995,2690,-132,-2256,-4622,-121,-557,5935
976,12683,2533,2689,-2806,84,-4896,147,-635,5360
977,13293,2483,2690,-2914,-1100,-2542,-44,-766,3432
978,13293,2449,2690,-2676,-446,-3932,454,-1077,5062
979,14118,2708,2690,132,-1012,-8380,-44,927,4732
980,14118,2146,2688,916,-3370,-1618,453,644,3300
981,15110,2253,2690,-2752,1108,-3862,-454,-462,3435
982,15110,2771,2689,2926,1032,-9454,279,1623,3656
983,15756,2407,2692,2450,-1174,-7068,-27,238,5009
984,16222,2233,2692,-224,-570,-3112,105,-1929,2083
985,16222,2552,2693,936,894,-4006,-5,644,1941
986,16509,2408,2691,3686,-386,-3932,402,-934,1561
987,16509,2455,2689,766,-1730,-3170,266,781,367
988,16748,2432,2689,-590,632,-1612,143,-179,2124
989,16748,2940,2691,248,1174,-3436,-1183,-750,2607
990,16976,2192,2690,-1636,1348,-3744,376,-416,129
991,16976,2454,2690,524,670,-3682,547,-487,1013
992,16976,2451,2691,-220,-1894,-3250,334,917,506
993,16964,2478,2691,80,-478,-3492,24,400,562
994,16964,2703,2689,370,3188,-5110,-825,-480,801
995,16964,2402,2689,-180,-1250,-3428,-157,545,359
996,17000,2420,2690,1658,-116,-6014,231,-45,936
997,17000,2535,2691,324,-2554,-5428,176,54,901
998,17000,2326,2691,-1230,328,-4692,114,329,447
999,17000,2421,2688,1172,-392,-7676,-238,272,135
1000,16976,2292,2690,-1996,1188,182,918,-7,-1484
1001,16976,2380,2690,3008,-2336,-5166,182,-922,-2079
1002,16976,2284,2689,-1372,-1364,796,256,403,-1206
1003,16964,2498,2690,-368,-1068,340,159,40,176
1004,16964,2526,2689,-684,-1182,-8340,-315,-223,-2306
1005,16976,2278,2689,-64,-1636,-3134,-538,815,-325
1006,16976,2434,2688,910,-324,-3458,182,-864,-296
1007,16964,2372,2690,-344,2406,-5578,586,260,-664
1008,16964,2505,2690,2734,-1156,-4240,424,-576,-1068
1009,16964,2535,2690,-1192,1338,-4768,363,89,-897
1010,16976,2218,2689,90,114,-6104,-193,-96,503
1011,16976,2424,2688,-34,-218,-1308,-367,657,789
1012,16976,2520,2691,-1746,-702,-1236,611,-207,553
1013,16976,2328,2691,636,974,-6736,279,457,653
1014,16976,2566,2690,-942,-2098,-1894,-12,-379,79
1015,16976,2367,2690,-696,1532,-2768,-331,828,-375
1016,16964,2429,2688,1998,-112,-2532,-182,-585,-3782
1017,16892,2652,2690,1284,-1512,-3824,492,228,-935
1018,16892,2181,2689,-780,1744,-6666,166,-58,93
1019,16653,2364,2688,1894,-1376,-7480,-257,129,-2444
1020,16653,2383,2691,-1716,1604,-2488,331,-197,23
1021,16210,2591,2689,16,126,-6924,-628,-350,397
1022,15804,2208,2690,894,-1238,-1430,-324,120,264
1023,15804,2421,2689,224,-434,-2552,60,-493,-19
1024,15003,2518,2690,1312,-2102,-4324,276,505,580
1025,15003,2290,2689,-1572,30,-4776,402,-585,132
1026,13520,2411,2689,-5236,4076,-7916,-828,1060,1116
1027,13520,2425,2687,-2690,-1138,-958,-260,-1579,1393
1028,12456,2378,2690,-4398,1322,-2712,130,-1363,1204
1029,11978,2100,2691,-4134,-1088,-4742,227,-258,2304
1030,11978,2358,2688,1068,-2376,-4296,279,25,3795
1031,11882,2581,2688,-5618,1546,-3536,-512,139,4912
1032,11882,2223,2688,954,468,-7270,-18,1025,3135
1033,11978,2206,2689,-6000,666,248,1777,396,4582
1034,11978,2442,2689,-636,-54,-3252,-105,956,4243
1035,12133,2294,2690,-1486,-2430,-2378,356,-1046,3768
1036,12229,2450,2690,-3956,1456,-4022,-593,612,5109
1037,12229,2373,2690,-1774,-1120,-3338,-450,-188,4921
1038,12025,2351,2687,-2676,-8,-2018,-202,130,4726
1039,12025,2470,2689,-2276,1950,-6592,237,774,4900
1040,12025,2425,2689,-394,-870,-6226,360,-1443,4888
1041,12013,2554,2689,-180,924,-10416,102,371,4653
1042,12013,2374,2689,-5226,1034,-7632,-693,-744,4001
1043,11571,2419,2687,-4400,2446,-7876,-599,397,6168
1044,11571,2547,2690,1236,-764,-3520,325,447,4723
1045,11571,2559,2691,-1788,-2072,-2762,340,-506,4986
1046,11571,2457,2691,-410,182,-5238,453,698,4614
1047,11655,2423,2689,-1016,668,-6522,-50,-1246,3656
1048,11655,2465,2688,-2810,-2296,-2896,-634,-121,5846
1049,11738,2473,2689,56,-1058,-4026,92,-1131,4803
1050,12133,2495,2688,-1302,-1016,1308,534,-137,4803
1051,12133,2475,2692,-4678,-48,-682,270,381,4679
1052,12731,2397,2690,-346,-1078,-5200,198,-388,5516
1053,12731,2416,2688,-3160,-844,-2940,-1268,237,7417
1054,13532,2405,2687,-2668,252,-6064,-444,530,4723
1055,13532,2422,2689,-682,1144,-3528,-299,-566,5557
1056,13532,2514,2691,-2222,-1008,-5536,-102,879,5021
1057,15051,2344,2691,1622,-584,-4056,1035,1022,3061
1058,15051,2451,2688,-1034,-3280,-5458,18,1194,3471
1059,15517,2356,2690,4914,800,-3504,-703,1006,4768
1060,15517,2649,2693,408,730,-5660,-54,-846,2147
1061,16115,2105,2692,1600,-28,-5736,305,667,1187
1062,16629,2391,2692,972,208,-4144,82,25,2478
1063,16629,2211,2689,852,-1228,-5436,-12,625,600
1064,16976,2391,2689,2204,104,-4028,-583,-140,1473
1065,16976,2284,2690,3614,356,-4424,502,1114,4891
1066,16976,2560,2689,1588,-1126,-6406,-289,38,297
1067,16976,2448,2689,-236,1600,-5250,-79,114,135
1068,16976,2405,2690,1102,-334,-4532,240,-46,432
1069,16964,2443,2688,650,-34,-4840,-160,2,-1251
1070,16964,2537,2690,-1404,674,4,-118,-521,414
1071,16976,2186,2691,-294,44,-7120,-131,352,-263
1072,16976,2490,2689,-1388,-170,-2552,-137,-718,179
1073,16964,2276,2688,-1048,838,-7258,431,-39,-1716
1074,16964,2399,2691,310,394,-2504,556,-23,-4
1075,16988,2266,2689,-318,334,-4986,-286,438,4491
1076,16988,2318,2690,-1556,-600,-2288,-237,619,1237
1077,16988,2258,2688,1192,-558,-4678,-641,-23,158
1078,17047,2550,2690,700,-428,-3378,111,762,214
1079,17047,2365,2689,926,2366,-4266,-109,-118,-561
1080,17047,2280,2688,-326,132,-5804,363,2,553
1081,17047,2209,2689,-902,2260,-4866,902,-744,812
1082,17047,2184,2690,990,-2074,-6852,-125,663,-1215
1083,17131,2332,2691,-1922,1576,-4476,-476,978,-820
1084,17131,2238,2690,1924,-1786,-5884,-522,825,-1769
1085,17131,2513,2690,-1404,-2292,-2556,91,-290,969
1086,17131,2501,2691,2554,-568,-5426,634,-29,388
1087,17143,2043,2691,-1426,286,-1820,660,-303,58
1088,17107,2307,2688,344,-1376,-4226,-382,508,67
1089,17107,2242,2688,12,-286,-2418,-486,-137,158
1090,17035,2324,2689,-56,1050,-4570,-548,298,335
1091,17035,2444,2689,-446,336,-1448,-286,168,-570
1092,17035,2433,2690,-880,1086,-2940,556,-395,-844
1093,17035,2548,2691,-130,-1316,-5724,424,288,-873
1094,16988,2111,2689,-1360,-62,-2718,72,1015,-302
1095,16964,2399,2689,2968,-470,-4126,-579,232,-399
1096,16964,2261,2691,-2476,990,2518,-15,-341,-1563
1097,16976,2314,2690,1570,298,-5660,263,565,-1
1098,16976,2418,2689,-604,-648,-5104,111,-528,-19
1099,16976,2294,2691,694,1864,-6562,134,1159,-240
1100,16976,2645,2689,874,-528,-5508,-287,-757,2590
1101,16976,1977,2687,1200,3034,-4850,-234,-537,-157
1102,16964,2483,2690,-762,-1164,-366,-38,-271,370
1103,16964,2323,2690,-2082,1372,-1562,412,-178,379
1104,16904,2342,2690,1394,-1472,-7362,82,-86,-72
1105,16904,2414,2690,594,1896,-2704,-131,924,-1372
1106,16976,2507,2690,-910,932,-5798,-347,-635,-69
1107,16976,2361,2689,76,696,-6594,121,244,-493
1108,16964,2392,2691,1324,-1310,-1256,476,256,441
1109,16964,2365,2690,-22,388,-7796,385,879,-3066
1110,16964,2485,2689,1494,-928,-4006,-231,-394,111
1111,16988,2299,2688,908,2616,-2874,-293,358,-490
1112,16988,2730,2689,1052,232,-8204,127,-268,-703
1113,16988,2006,2689,-1194,-902,-4168,143,-125,721
1114,16988,2499,2690,-96,1242,-4392,-34,69,-387
1115,17000,2348,2688,-366,-1860,-4278,-1067,1301,1649
1116,17011,2360,2689,-432,972,2826,-435,-1218,-773
1117,17011,2336,2689,-258,-326,-4694,-82,-705,167
1118,17035,2431,2688,3368,-584,-5924,227,786,-1
1119,17035,2424,2690,108,-422,-3682,366,-87,-508
1120,17047,2570,2689,-254,-404,-624,-477,844,1953
1121,17023,2270,2690,-790,132,-5630,121,-569,31
1122,17023,2488,2691,-468,1106,-3194,-457,37,860
1123,17000,2325,2690,588,490,-3484,166,-29,226
1124,17000,2435,2689,-518,1914,-2438,166,63,-1127
1125,16964,2232,2691,-1856,958,280,-21,-1258,-809
1126,16964,2463,2689,112,-384,-3194,-12,-252,31
1127,16964,2087,2689,-670,-598,-958,-221,806,-535
1128,16964,2646,2690,-624,-1118,-5224,-47,520,-823
1129,16964,2113,2690,386,86,-1812,482,-445,-2648
1130,17000,2399,2689,-180,1160,-3196,615,400,-296
1131,17000,2468,2693,-264,66,-6364,-102,-439,-193
1132,17000,2168,2690,56,1892,-5000,-89,533,-1015
1133,17000,2243,2686,72,-532,-4174,-138,-309,-387
1134,17000,2466,2688,740,1182,-4236,-293,-223,-110
1135,16964,2297,2689,838,-1444,-5756,5,-70,765
1136,16964,2379,2690,-1882,2440,482,424,-318,-4537
1137,16976,2346,2690,1106,-736,-8130,260,-9,-72
1138,16976,2329,2691,1746,20,-4496,-457,104,-145
1139,16976,2402,2690,-3194,512,-3030,230,335,-620
1140,16964,2355,2688,1318,-22,-7662,382,603,-319
1141,16964,2428,2689,-678,834,-5102,172,-322,-319
1142,16976,2366,2692,1052,410,-6794,260,-556,294
1143,16976,2625,2690,310,1742,-3766,-79,257,-375
1144,16964,2230,2690,-4,2694,-2128,-282,-594,-346
1145,16964,2367,2691,-572,-2228,-4752,4,-229,-275
1146,16964,2404,2689,1238,-942,-3476,111,272,-296
1147,16964,2388,2688,-2472,1246,-4346,131,244,-31
1148,16964,2404,2689,2248,-1140,-1570,1,1279,-2061
1149,16916,2406,2692,930,-492,-3632,424,-179,-635
1150,16916,2370,2689,-3386,4800,-3180,-590,66,-399
1151,16736,2502,2688,-764,-2134,1046,-53,505,-390
1152,16736,2459,2689,1286,-94,-3556,467,225,-151
1153,16641,2441,2689,326,908,-1388,-402,235,-358
1154,16641,2415,2690,462,-168,-4878,85,-118,-175
1155,16641,2411,2688,-818,124,-1146,134,-71,214
1156,16557,2527,2689,-374,1388,-4504,-186,571,1013
1157,16557,2411,2692,50,652,-2590,509,-670,-184
1158,16091,2488,2690,2420,-848,-6816,-1038,-379,585
1159,16091,2291,2688,614,1732,-2956,-121,50,-1059
1160,15302,2503,2689,-1476,1016,-5204,221,-678,-343
1161,14895,2399,2690,458,-912,-5688,-147,746,84
1162,14895,2370,2691,562,-1010,-4088,496,-1067,-1386
1163,14524,2459,2689,-2012,2234,-6206,-370,393,1490
1164,14524,2581,2689,-1160,-770,-3592,-14,-1414,-199
1165,14405,2368,2689,-1978,-1144,-6278,-386,-874,1826
1166,14405,2396,2689,-26,840,-1584,479,-179,-980
1167,14309,2363,2688,-2276,-2676,-2982,421,-1007,1573
1168,14118,2389,2688,-1978,-454,-5896,-341,1120,3992
1169,14118,2301,2688,-556,-1272,-6804,-228,343,1160
1170,13962,2733,2688,-3106,278,-8228,-331,1247,1428
1171,13962,2305,2688,-100,-1488,-1530,-31,-102,1411
1172,13783,2322,2690,-2790,1272,-3612,-54,168,2395
1173,13257,2447,2689,754,-2092,-5836,111,-410,2212
1174,13257,2422,2691,-132,-1996,-2916,496,-696,2422
1175,12683,2380,2688,-3440,1860,-7392,-79,-1369,3830
1176,12683,2453,2689,-2356,-712,-1768,527,564,706
1177,12480,2214,2687,-796,834,-7420,283,-1121,2817
1178,12480,2703,2688,-4796,802,-2152,243,380,3400
1179,12492,2124,2689,-768,-1132,-4074,476,-169,3412
1180,12779,2443,2687,-1718,-722,-3168,-473,406,4470
1181,12779,2445,2689,-3300,-1124,244,270,-566,4555
1182,13185,2506,2688,-1576,502,-8286,-351,-23,4859
1183,13185,2331,2690,-42,-2810,-7292,473,1245,4243
1184,13771,2500,2689,-1772,1312,-1954,350,-262,4237
1185,13771,2483,2689,-2840,5070,-8664,-1284,736,2451
1186,14082,2528,2690,1174,-1894,-1840,-293,-906,4119
1187,14429,2451,2690,-982,200,-3426,492,-842,4199
1188,14429,2504,2691,-4,-260,-3228,270,-213,3094
1189,14931,2422,2691,-4950,998,-4504,689,-486,3559
1190,14931,2454,2688,672,1602,-9638,-712,866,4968
1191,15230,2592,2690,286,-1540,-4388,-347,157,2663
1192,15230,2449,2688,-878,-1632,-912,353,263,780
1193,15828,2390,2690,-1022,1446,-1906,-241,450,2147
1194,16270,2370,2690,3062,-1586,-2906,531,425,1658
1195,16270,2361,2690,-1232,-22,-2976,357,-635,2097
1196,16677,2650,2689,1360,462,-3314,82,882,1340
1197,16677,2376,2689,1160,3578,-6782,-613,-748,2725
1198,16976,2641,2690,-754,-2396,-4386,166,228,1219
1199,16976,2184,2689,-16,-198,-5306,334,139,414
1200,16976,2435,2690,1002,464,-4036,-85,1092,-199
1201,16964,2318,2689,-824,680,-1970,179,-693,621
1202,16964,2607,2688,-506,34,-3666,-1154,695,715
1203,16964,2171,2690,1568,-756,-3950,-647,-1217,90
1204,16964,2407,2691,-1372,-922,-4538,47,209,329
1205,16976,2524,2688,-2078,1330,1070,-234,117,412
1206,16964,2358,2690,1388,-1136,-6146,285,-976,1414
1207,16964,2480,2688,-386,-960,-3468,92,418,-243
1208,16976,2543,2690,28,-758,-1392,44,-254,1022
1209,16976,2370,2690,-750,-2012,-5434,-147,-200,-122
1210,16964,2277,2689,-40,-748,-4736,-661,177,-841
1211,16964,2400,2689,988,-368,-6906,-292,-489,-266
1212,16964,2346,2691,852,-1826,-3108,82,12,765
1213,16976,2358,2690,-1330,1494,-3584,69,-397,910
1214,16976,2386,2689,994,-2796,-7680,-125,853,618
1215,16976,2579,2690,1502,-2012,-2610,-835,161,2336
1216,16976,2324,2690,210,2064,-3138,-916,450,786
1217,16964,2433,2690,640,-1402,-3454,-115,-443,-98
1218,16964,2303,2690,-760,1928,-3054,314,-1354,382
1219,16976,2386,2690,-844,-102,-4360,598,361,403
1220,16976,2403,2689,580,688,-1462,-464,-436,1030
1221,16976,2149,2689,-1258,-1482,-1560,-289,143,924
1222,16964,2330,2689,2642,170,-4802,-308,590,20
1223,16964,2351,2690,-3406,1410,1680,-435,-299,1039
1224,16964,2391,2690,2702,-1766,-6524,1296,873,939
1225,16964,2288,2689,-940,706,-6072,50,-1,553
1226,16976,2610,2689,42,1240,-2580,8,527,-219
1227,16964,2262,2688,2356,-1640,-3296,59,21,-16
1228,16964,2343,2690,1344,1538,-2292,-193,-404,-110
1229,16892,2417,2690,-464,2002,-2558,750,-633,-343
1230,16892,2489,2690,1546,-1734,-4014,444,-385,-95
1231,16820,2391,2688,-1126,3498,-6630,-302,-773,-240
1232,16736,2492,2689,-1742,-198,-4078,-557,-105,-51
1233,16736,2375,2689,1358,46,-6874,188,409,-393
1234,16569,2463,2689,930,-112,-3160,124,1073,-313
1235,16569,2447,2689,-1190,2310,-1588,272,-128,-358
1236,16007,2656,2689,2588,2942,-7934,695,558,-3196
1237,16007,2282,2691,-392,76,-4576,79,339,-1587
1238,15062,2462,2688,1548,-814,-3000,308,-35,-844
1239,14118,2520,2689,-3350,1604,-4206,-632,-214,571
1240,14118,2606,2690,224,1614,-5260,654,276,-346
1241,13747,2590,2689,-3704,3276,-3712,105,-959,3925
1242,13747,2540,2689,-3422,1756,-5118,-102,-445,3170
1243,13604,2518,2688,-1818,824,-7532,59,-1103,2952
1244,13604,2870,2688,-6584,3440,-5008,-1600,180,5705
1245,13604,2472,2690,-1344,414,-4962,327,406,3061
1246,13652,2499,2689,-796,-1534,-5422,-279,76,3226
1247,13652,2534,2689,228,-2830,120,383,781,1608
1248,13652,2618,2688,-784,-60,-3418,414,-141,2348
1249,13652,2554,2689,-1566,-114,-4418,-463,124,2817
1250,13640,2389,2688,-1898,-2040,-2968,776,-366,1965
1251,13640,2494,2689,-2858,-1884,-6254,334,749,2881
1252,13556,2347,2688,-1008,-1290,-3342,-1093,-127,-5430
1253,13532,2476,2689,-2762,964,-2282,431,-404,2472
1254,13532,2485,2689,-2416,-192,-1390,1315,399,-2058
1255,13508,2726,2690,-3142,1546,2592,-144,-1255,3267
1256,13508,2303,2690,392,-2250,-4026,-218,-449,4765
1257,13520,2490,2689,-4286,1928,-2670,24,-690,2059
1258,13723,2458,2688,-4248,-774,1042,434,362,4349
1259,13723,2433,2688,-1092,-628,-4592,382,-115,2159
1260,13759,2516,2690,-2404,-1680,-7232,-596,667,3126
1261,13759,2237,2689,-1632,-2220,-2586,-134,1609,4715
1262,13783,2423,2689,888,-106,-6236,-124,-909,1325
1263,13783,2248,2687,-3338,366,-2612,114,107,3194
1264,13891,2595,2690,2466,1624,-4898,675,269,3297
1265,14058,1826,2691,-2752,-1932,-5366,269,-1351,2634
1266,14058,2597,2688,-3802,-662,-4920,-1238,1378,4782
1267,14345,2259,2689,-502,-808,-4298,230,-659,2310
1268,14345,2286,2689,-1360,-1248,-3036,-305,266,4499
1269,14728,2410,2690,-1242,790,-1512,-212,745,1853
1270,14728,2495,2691,-916,-1366,-3178,211,-39,2156
1271,14728,2597,2691,-600,488,-4252,-31,647,2539
1272,15481,2153,2690,-132,-1292,-2860,-602,-96,4057
1273,15481,2443,2689,604,-2596,-4706,-102,1137,1582
1274,15876,2584,2689,956,2892,-4918,634,120,1272
1275,15876,2244,2690,-328,-1474,-2042,247,454,1425
1276,16306,2631,2690,-1088,1244,-2620,-34,453,1467
1277,16306,1924,2691,2968,-744,-5752,-428,396,-72
1278,16629,2465,2689,-1444,1532,-2404,-299,-556,833
1279,16916,2367,2690,2604,-2162,-6426,66,104,-2179
1280,16916,2272,2690,494,1870,-5238,343,-728,164
1281,16964,2295,2688,-282,-1814,-3246,-331,-188,329
1282,16964,2500,2690,444,-590,-2866,-8,-299,742
1283,16964,2593,2689,-1056,464,-4988,170,174,830
1284,16964,2106,2691,-68,-1570,-3858,-150,-13,588
1285,16964,2349,2690,-1224,826,-3946,-50,259,52
1286,16976,2386,2690,3106,64,-5170,-85,-283,524
1287,16976,2495,2690,844,-484,-3652,292,-302,-361
1288,16964,2622,2689,-816,-366,-928,534,-1023,600
1289,16964,1902,2691,-782,144,-738,311,-20,-741
1290,16976,2447,2688,2,478,-3536,140,-287,-417
1291,16976,2263,2690,402,-384,-2300,182,355,-166
1292,16976,2319,2690,-296,-26,-3782,315,-578,108
1293,16964,2344,2691,-446,-608,-5810,-57,65,-885
1294,16964,2394,2690,58,180,-3670,-44,-74,618
1295,16964,2349,2689,802,3840,-4354,-651,-328,-744
1296,16964,2377,2690,-604,-12,-3144,-160,155,-42
1297,16964,2446,2690,294,-442,-814,157,-534,697
1298,16976,2089,2691,-954,-1182,-4300,-202,422,1187
1299,16976,2268,2689,992,-140,-2614,-641,-217,1440
1300,16976,2317,2689,-2728,836,-3502,-480,-315,356
1301,16976,2261,2690,2340,-782,-5086,-370,-687,-199
1302,16964,2408,2690,1136,-2826,-566,589,-1274,-1607
1303,16964,2153,2690,344,-1758,-3740,241,82,-1041
1304,16928,2442,2691,80,160,-1798,-2,-414,285
1305,16916,2175,2690,-436,-966,-3392,-96,218,432
1306,16916,2394,2690,-192,-776,-3990,-744,546,229
1307,16581,2315,2689,136,-1350,-4990,679,-7,-4637
1308,16581,2340,2689,124,80,-4598,-176,-528,913
1309,15876,2236,2691,530,1146,-7136,-325,838,4093
1310,15876,2232,2690,1908,-700,-7610,182,488,1004
1311,15062,2100,2689,-58,86,-2318,-490,-229,509
1312,14285,2578,2690,288,1400,-7436,-515,104,-311
1313,14285,2397,2689,-4250,1038,-6026,182,-773,-39
1314,13879,2179,2690,-6116,2622,-8664,-250,587,860
1315,13879,2545,2689,-2216,-2396,10,979,-988,2416
1316,13652,2411,2686,-3050,1092,-4164,-12,-681,2047
1317,13436,2055,2688,-5044,1532,-3276,-680,54,2094
1318,13436,2418,2689,1094,-1194,-422,-1645,422,1918
1319,13293,2244,2689,-2794,270,-5546,-592,-105,4054
1320,13293,2466,2688,2292,486,-6118,-315,495,1644
1321,12886,2363,2691,-5736,-546,1244,218,-293,2578
1322,12886,2280,2690,1894,-834,-7032,-182,530,3677
1323,12492,2423,2689,476,-1476,-3886,198,-1046,2790
1324,12037,2425,2690,-1900,1344,-6112,128,343,3002
1325,12037,2631,2689,-3498,266,-6184,-373,155,857
1326,11738,2251,2690,-1814,-1146,-806,69,-305,2139
1327,11738,2369,2690,-4028,1988,-6628,279,-1027,3710
1328,11655,2474,2688,-3068,-1332,-1306,76,1226,3427
1329,11655,2425,2687,290,228,-2676,670,-1347,3462
1330,11643,2666,2689,-6310,-2194,-4690,472,805,2970
1331,11726,2081,2688,1490,-758,-4594,66,295,5504
1332,11726,2482,2687,-612,-3044,-4306,-44,-239,5083
1333,11870,2436,2688,-4046,-2322,2722,-176,-13,4255
1334,11870,2357,2690,-1104,198,-3222,679,-1049,4334
1335,11882,2405,2691,-3104,-1798,-4924,418,701,4776
1336,11882,2373,2690,-2118,-302,-4186,218,739,5448
1337,11726,2374,2687,-3590,-1528,-5082,-219,1145,3931
1338,11643,2543,2688,468,-2584,-4178,159,348,5033
1339,11643,2428,2689,-1886,12,-2674,728,-281,4785
1340,11571,2444,2691,-874,-1724,-6120,95,-251,4579
1341,11571,2438,2690,636,-1920,-6684,105,343,2819
1342,11619,2439,2688,-1596,-452,-3668,-412,-391,3503
1343,11619,2516,2687,-2920,-980,-3336,105,383,3875
1344,11750,2354,2688,-132,-1854,-7208,108,-680,4779
1345,12121,2348,2692,-4026,-448,-6992,282,892,7974
1346,12121,2388,2690,-2502,-2394,-3722,444,-439,5581
1347,12671,2379,2687,-2380,-938,-4580,-786,597,7267
1348,12671,2216,2687,-14,-962,-2176,-60,-29,5923
1349,12827,2360,2687,-2370,-1316,-4294,431,793,5053
1350,12683,2215,2689,862,-404,-3236,453,-17,5363
1351,12683,2305,2691,-4282,-1666,-3130,479,336,3969
1352,12372,2358,2689,-1064,-1160,-6778,-460,244,5882
1353,12372,2351,2688,-2246,-1592,-2980,-193,-744,6112
1354,12121,2332,2688,-1552,1056,-7342,-170,-4,4517
1355,12121,2412,2690,336,-1430,-6736,185,18,4529
1356,11978,2255,2690,-1038,1998,-6012,437,-236,4880
1357,11870,2449,2688,-3854,-570,-3158,114,145,5499
1358,11870,2306,2687,-1952,1218,-5106,73,174,3833
1359,11882,2151,2690,-1924,910,-5816,479,-182,4491
1360,11882,2278,2690,-2334,1260,-5296,-538,-147,4585
1361,11750,2291,2689,-290,-1628,-3922,27,-8,4119
1362,11750,2540,2690,-3548,812,-1448,205,482,3636
1363,11679,2268,2689,316,296,-5076,-254,523,4275
1364,11643,2206,2689,-4774,382,-314,157,-42,3683
1365,11643,2315,2690,-2532,490,-3856,-109,1743,3356
1366,11631,2683,2689,-778,1630,-1418,-890,-725,966
1367,11631,2156,2688,-1000,-160,-4402,-60,28,3318
1368,11643,2168,2691,-3112,-376,-2502,908,-71,4694
1369,11643,2296,2691,-1606,-2206,-456,411,-29,4603
1370,11750,2359,2689,-284,362,-5834,-50,-445,3432
1371,12229,2300,2689,-1544,-1056,-2764,-738,838,5224
1372,12229,2362,2690,-2248,-1372,-4184,-499,-779,4529
1373,12827,2353,2688,-1718,1090,-1986,469,-430,4753
1374,12827,2298,2689,-4822,-1688,-2336,285,-823,4950
1375,13640,2351,2689,-4494,86,-2648,234,1292,5634
1376,14190,2360,2689,1802,1046,-7070,272,691,4871
1377,14190,2430,2689,-2018,-98,-5606,-1135,545,6403
1378,14692,2265,2689,1696,-1730,-4524,444,-1,3880
1379,14692,2397,2689,-108,-192,-3216,-76,-334,3471
1380,15122,2449,2691,-1274,618,-5314,53,-49,2940
1381,15122,2186,2689,466,-572,-3972,789,1228,2410
1382,15409,2363,2690,-998,182,-3272,-34,282,3739
1383,15852,2209,2690,896,-826,-3800,-11,152,2755
1384,15852,2636,2689,-1330,2830,-8122,-415,-1090,2772
1385,16342,2176,2691,1840,-3574,-2228,644,1225,-844
1386,16342,2266,2691,-864,-1442,-2746,863,-1122,1010
1387,16701,2491,2691,1238,1628,-6664,-606,393,1310
1388,16701,2360,2690,2720,-2250,-2000,256,-258,2466
1389,16796,2326,2688,-1002,1308,-9990,-25,-303,1101
1390,16784,2410,2690,-740,-1482,-1588,-318,1244,81
1391,16784,2374,2690,1060,2994,-4718,195,35,441
1392,16748,2382,2690,460,-842,-5152,305,-636,-555
1393,16748,2308,2690,392,202,-3120,198,476,417
1394,16772,2408,2689,400,2204,-2658,-493,-468,167
1395,16772,2543,2688,806,-474,-5816,-137,378,397
1396,16808,2379,2690,-372,316,-3376,682,-801,-42
1397,16916,2397,2690,-3246,1210,-6550,-109,752,367
1398,16916,2343,2690,1348,-1364,-2546,221,225,-635
1399,16976,2357,2689,-3760,184,-3378,270,-477,55
1400,16976,2310,2688,744,-1314,-1922,-380,209,-1059
1401,16988,2299,2689,-402,1102,-2274,386,139,677
1402,16976,2168,2689,146,-1378,-3190,541,-350,400
1403,16976,2355,2688,-686,560,-3494,221,171,-1186
1404,16976,2338,2688,886,-456,-5074,115,-213,-160
1405,16976,2329,2690,650,-578,-3508,8,-598,-1277
1406,16976,2548,2688,-114,-982,-834,337,-395,-207
1407,16976,2302,2690,1790,-370,-6246,179,1168,143
1408,16976,2476,2689,-3188,1188,-5240,495,133,-2468
1409,16964,2015,2690,2814,-1052,-5908,127,94,-293
1410,16964,2632,2689,-1822,996,-3306,-11,578,-1218
1411,16976,1879,2691,454,140,-1578,-234,-623,426
1412,16976,2455,2690,-292,510,-6422,79,415,-296
1413,16976,2231,2689,146,-1198,-2570,318,-278,31
1414,16976,2394,2690,502,-504,-506,470,25,-349
1415,16916,2412,2689,514,-1010,-2760,360,-861,1086
1416,16701,2159,2689,-1486,660,-1792,-393,199,111
1417,16701,2656,2690,1858,684,-5506,-82,-385,96
1418,16330,1913,2689,-1880,1690,-6220,-209,-748,-10
1419,16330,2359,2691,1056,-956,-5282,-34,-220,114
1420,15242,2283,2691,-2170,996,-3806,37,-525,1287
1421,15242,2274,2689,3138,18,-6636,-1002,1537,482
1422,13783,2413,2689,-2984,-132,1234,-805,-1267,2006
1423,12265,2373,2691,-4704,-884,-4062,-483,977,1823
1424,12265,2522,2689,-110,3482,-1064,-1325,-343,2024
1425,11655,2159,2689,-2898,-2494,-3554,192,-1709,677
1426,11655,2261,2691,-3426,4268,-6082,-444,-527,2472
1427,11260,2367,2689,-2850,162,-3654,-344,-973,2581
1428,11260,2309,2687,-3388,-2056,-3262,241,498,3777
1429,11320,2433,2688,-4764,1410,-1550,-1326,9,4729
1430,11619,2441,2691,-1118,-1212,-3906,27,-665,4732
1431,11619,2558,2690,-1088,-42,-3334,405,892,3580
1432,12085,2062,2689,-360,-88,-5968,379,-534,3763
1433,12085,2391,2690,-3050,-2080,-3560,305,-312,5333
1434,12731,2389,2689,-2916,-2182,-2776,395,1149,4635
1435,13245,2241,2689,-2340,-856,-4414,385,-471,4352
1436,13245,2304,2691,-4490,-1510,-5448,349,88,4240
1437,13723,2345,2690,-990,4,-3168,108,193,5230
1438,13723,2331,2690,-1836,4278,-4164,146,-382,3586
1439,13939,2483,2688,-1038,-2490,-6236,-386,1352,4016
1440,13939,2347,2691,-2486,602,-1980,-18,158,3197
1441,14309,2277,2691,-2904,-1202,-6668,831,-540,1257
1442,14811,2259,2690,-1754,1520,-2162,-283,958,4219
1443,14811,2341,2690,604,-1458,-5224,680,-867,3259
1444,15242,2320,2689,-916,538,-3372,331,336,2875
1445,15242,2285,2690,1456,2508,-1792,-212,498,4252
1446,15768,2438,2692,-1110,-1000,-3040,489,-878,2389
1447,15768,2250,2690,-786,-632,-7172,-302,545,1590
1448,15852,2449,2691,-104,-1678,-1282,266,-995,1658
1449,15947,2263,2689,-650,1398,-7626,56,1069,986
1450,15947,2349,2690,3030,-2098,-4450,-102,-636,4037
1451,16031,2186,2689,-1372,-302,-3614,560,-404,485
1452,16031,2406,2691,3500,230,-6796,150,1321,1532
1453,16222,2392,2688,-2096,270,-116,152,-436,400
1454,16222,2301,2689,1644,-1596,-6756,476,555,1458
1455,16509,2253,2690,890,-234,-1892,269,-141,-1327
1456,16820,2463,2689,366,-362,-3466,376,-906,214
1457,16820,2127,2691,32,-758,-3692,27,888,-1360
1458,16892,2201,2689,-766,-1274,-2456,-399,63,544
1459,16892,2368,2689,2130,-770,-2034,-399,-118,1770
1460,16808,2247,2689,2160,-1590,-3306,92,-690,279
1461,16641,2496,2692,-1970,1500,-1078,279,695,-644
1462,16641,2146,2691,2782,270,-4588,563,564,164
1463,16318,2356,2689,344,-1738,-5088,-625,79,1119
1464,16318,2407,2689,2428,-196,-6904,-208,565,1502
1465,15696,2245,2689,116,-1126,-2892,117,-553,-255
1466,15696,2387,2689,-922,-634,-2916,141,-1753,-66
1467,14680,2207,2689,-176,964,-4598,369,853,247
1468,13795,2555,2691,-322,-918,-2252,405,-1192,-425
1469,13795,2164,2688,-1278,-830,-7222,-115,-674,1364
1470,13018,2274,2688,-4936,-246,-3198,-151,-112,2817
1471,13018,2441,2689,-2062,326,-7892,63,-332,2150
1472,12312,2274,2689,-1954,-1730,-3180,179,1273,3002
1473,12312,2303,2689,1120,976,-6742,540,-439,2937
1474,11966,2413,2688,-5316,1602,-2008,-515,98,3630
1475,11798,2567,2689,2454,-1614,-3184,-40,1280,4102
1476,11798,2100,2690,-4416,3590,-2640,608,-935,3901
1477,11679,2301,2687,-2492,-1232,-5294,88,53,3459
1478,11679,2398,2690,-1768,-1698,-5304,1726,-258,2201
1479,11392,2385,2690,-4486,204,-7330,150,-258,3712
1480,11392,2405,2687,-1822,-1032,-2742,-554,-693,4832
1481,10925,2457,2688,-2056,862,-2144,621,2,4997
1482,10650,2360,2688,-3342,-974,-3620,101,-249,4723
1483,10650,2345,2690,2770,-3022,-1572,266,-474,4199
1484,10500,2396,2688,-5824,-692,-2162,159,-252,5180
1485,10500,2525,2688,-4220,642,-2838,-119,459,6533
1486,10500,2467,2690,-1428,-1034,-5494,185,-379,5835
1487,10500,2387,2691,-3304,808,-3326,-82,-696,6896
1488,10500,2340,2690,-4170,-264,-2452,53,383,7066
1489,10500,2458,2687,-2800,-1766,-5440,60,251,6636
1490,10500,2571,2689,-3596,-768,-1272,-112,428,6336
1491,10500,2557,2691,-2666,-2722,-3896,159,-97,6262
1492,10500,2454,2691,-2202,1716,-4356,-303,615,6562
1493,10500,2477,2689,-6294,-1326,-6946,-80,497,6624
1494,10500,2388,2689,254,-296,-5824,127,-645,6645
1495,10500,2376,2692,-4518,1154,-4650,695,-607,4635
1496,10500,2290,2690,1338,-732,-4998,272,352,4953
1497,10500,2607,2689,-3800,274,-1248,440,-255,5643
1498,10500,2096,2689,-548,-278,-6176,218,454,5678
1499,10500,2348,2690,-2962,-700,-3582,-483,-494,5911
1500,10500,2394,2688,-2896,-1210,-5086,-360,-417,5342
1501,10500,2360,2689,-2392,-2796,-926,-50,-614,5331
1502,10500,2180,2690,-4232,1946,-6164,-144,-998,6350
1503,10500,2583,2690,-3046,-944,-2382,-18,180,7777
1504,10500,2443,2689,-1742,-2054,-6890,-561,250,4305
1505,10500,2272,2688,-4196,258,-3090,511,955,6218
1506,10500,2355,2689,302,-548,-6810,188,-865,6020
1507,10500,2289,2689,-5344,-1190,-2950,295,135,5233
1508,10500,2360,2690,-2718,90,-2338,360,-388,4883
1509,10500,2659,2689,-2618,-822,-5514,573,101,5065
1510,10500,2055,2688,-3166,-58,-5168,269,758,6112
1511,10500,2362,2688,-1770,-1150,-4532,-402,-655,4110
1512,10500,2575,2690,-2766,-1586,-6248,-76,498,6005
1513,10500,2304,2688,-3512,702,-5018,-228,615,4473
1514,10500,2420,2691,-722,-2892,-6650,250,-55,5098
1515,10500,2335,2689,-4848,688,450,576,-363,4576
1516,10500,2660,2688,-4186,-608,-1698,-528,530,6763
1517,10500,2323,2688,-702,-1132,-5500,66,129,5051
1518,10500,2393,2689,-380,-584,-4158,105,-214,4606
1519,10500,2488,2691,-4804,-912,-3472,24,-680,4508
1520,10500,2227,2690,-3236,-602,-4398,-22,-109,4776
1521,10500,2465,2690,-1390,-2056,-2780,-295,482,5661
1522,10500,2494,2689,-3288,2324,-2086,-96,380,6112
1523,10500,2480,2690,-3616,-2512,-4508,276,-191,5425
1524,10500,2390,2691,-658,704,-6714,-651,333,8853
1525,10500,2434,2689,-2738,978,-5286,-28,142,5761
1526,10500,2297,2687,-638,-796,-5728,-374,-523,6005
1527,10698,2502,2690,-532,-1528,-776,-335,748,5628
1528,10698,2413,2689,-4424,-744,-1486,347,-1391,5507
1529,11057,2465,2690,-1328,-1972,-7054,-1303,688,11682
1530,11057,2464,2690,-1208,-2396,-2480,-35,-252,5661
1531,11607,2691,2688,-2290,874,-6366,-722,733,4818
1532,11607,2232,2687,-1550,76,-3372,-254,-36,6427
1533,11978,2407,2689,-2478,-1662,-334,644,733,4930
1534,12468,2403,2690,-2500,1150,-4180,172,-264,6739
1535,12468,2383,2690,-698,-2444,-5018,47,-226,5982
1536,12886,2375,2690,-1764,-770,-5028,-499,-649,4971
1537,12886,2522,2690,-1126,-866,-4094,259,-846,4818
1538,13293,2442,2690,-4164,-1150,-6378,141,1165,5248
1539,13293,2553,2689,366,-602,-5060,-373,876,4944
1540,13843,2377,2689,-1728,-3404,-3588,628,-229,4379
1541,14405,2445,2690,686,274,-8150,-38,116,5837
1542,14405,2203,2690,-1984,-446,-4506,-493,-576,5118
1543,15146,2478,2689,-1492,-730,-3432,-761,967,4944
1544,15146,2187,2690,592,1586,-6970,-493,907,5784
1545,15959,2534,2690,312,-1406,-3842,175,348,1853
1546,15959,2399,2692,2802,-918,-8138,1199,517,-2294
1547,16414,2215,2692,498,740,-4924,-60,-144,1959
1548,16629,2421,2689,-1140,1616,-5938,-228,554,1514
1549,16629,2410,2691,2628,176,-5894,340,342,1151
1550,16689,2153,2692,-1508,3710,-936,-124,178,-1109
1551,16689,2606,2690,130,-1614,-6306,-66,1257,860
1552,16736,2074,2690,-1146,-604,-1988,123,262,801
1553,16868,2447,2689,-546,290,-2144,-400,-367,1007
1554,16868,2430,2690,1010,-688,-5470,134,272,783
1555,17000,2408,2690,-446,590,-2784,327,84,-249
1556,17000,2408,2690,-1030,924,-5080,66,447,733
1557,16964,2356,2691,994,-602,-3862,37,-258,644
1558,16964,2370,2691,-2162,-530,-1494,-954,-1259,2976
1559,16988,2387,2688,332,-986,-4598,-86,377,526
1560,16988,2433,2688,1470,510,-3958,463,-665,255
1561,16988,2514,2690,-138,954,-1134,392,435,2097
1562,17143,2332,2690,-668,-80,-7872,98,536,303
1563,17143,2456,2690,-126,-784,-4206,-512,949,491
1564,17490,2308,2688,-116,2644,-3858,-179,3,488
1565,17490,2419,2689,-1160,1436,-6058,181,1606,-608
1566,18195,2573,2691,428,-1186,-1134,589,8,167
1567,18195,2316,2689,-850,3366,-6266,325,133,120
1568,18673,2453,2690,2106,-1128,-3840,14,1654,40
1569,18829,2284,2690,3802,1112,-4892,4,240,-1660
1570,18829,2373,2691,-982,668,-4628,-109,-389,-3432
1571,18733,2261,2691,1708,988,-2948,735,1206,-1333
1572,18733,2591,2691,2726,2064,-2200,-266,-1207,-1758
1573,18267,2252,2689,26,-2362,-4672,4,757,-2206
1574,17693,2276,2691,2844,1512,-3870,-25,-499,-2869
1575,17693,2334,2689,-242,-3568,-2480,-244,-579,-2179
1576,17143,2342,2689,962,404,-2240,121,466,-1993
1577,17143,2416,2689,1198,-98,-356,-12,-468,-2465
1578,17143,2465,2689,180,-1980,-2374,595,-522,-1884
1579,17143,2592,2690,-1726,3106,-6102,-309,-382,-1643
1580,17143,2255,2690,-1808,-242,-2796,-244,111,-1436
1581,17131,2283,2688,2094,-16,-7040,218,323,-2073
1582,17131,2486,2689,50,1118,-2522,-492,203,-985
1583,17143,2399,2690,2856,-250,-8774,1040,215,-1056
1584,17143,2328,2689,944,242,-5076,-196,501,-1130
1585,17131,2394,2690,610,-368,-3260,-202,-296,-1254
1586,17143,2333,2689,-58,-1062,-2384,-289,-144,-381
1587,17143,2390,2689,842,1878,-3132,-525,-61,-496
1588,17107,2290,2690,2122,-138,-5646,269,44,-950
1589,17107,2378,2690,-400,1808,-2960,1063,-182,-4655
1590,17047,2245,2690,618,-1924,-4996,437,351,-591
1591,17047,2462,2689,-2370,114,618,437,-1271,-137
1592,17047,2088,2689,1424,262,-5124,-296,1015,-1442
1593,17047,2492,2688,-468,416,-1118,-212,-306,229
1594,17047,2263,2689,1380,-1046,-3930,301,1301,-965
1595,17035,2225,2689,-1210,848,-4400,-264,-154,214
1596,17035,2346,2688,1774,-1824,-5602,-56,114,-885
1597,17035,2333,2690,-774,-120,-1498,376,-455,-1153
1598,17035,2459,2689,176,208,-3470,50,-150,-1021
1599,17095,2292,2689,490,660,-3214,-180,82,-452
1600,17107,2339,2690,2436,-708,-5606,-144,79,-629
1601,17107,1969,2690,-990,932,-1356,-89,-607,-1324
1602,17035,2366,2691,1412,258,-3600,-925,-591,3291
1603,17035,1912,2688,-2704,1464,-902,156,-14,1794
1604,17035,2342,2689,1394,-1230,-4634,-47,418,1284
1605,17035,2213,2690,-1786,1084,-2620,73,533,-620
1606,17047,2423,2690,2184,-822,-5396,188,-259,-655
1607,17047,2260,2689,-316,1334,-2838,4,517,-579
1608,17047,2318,2690,468,-824,-2448,10,-652,-1348
1609,17047,2486,2690,150,3952,-7454,-163,-544,-847
1610,17047,2217,2689,556,-2286,-3316,260,162,-599
1611,17047,2250,2690,346,190,-5838,298,-386,-260
1612,17035,2324,2688,1384,208,-4440,-366,54,-1121
1613,17035,2399,2689,-64,2338,-1778,-205,-236,-361
1614,17035,2347,2689,1260,-1472,-4422,337,-588,-1260
1615,17035,2393,2690,1550,-926,-3876,-121,-404,-278
1616,17047,2349,2690,-208,874,-6300,66,768,23
1617,17047,2470,2690,44,222,-5592,-15,88,-691
1618,17047,2356,2690,-58,-800,-3112,292,771,-915
1619,17035,2423,2690,1002,-1214,-7014,111,-915,-1737
1620,17035,2205,2689,-164,-520,-2596,56,609,-98
1621,17035,2671,2690,1132,6,-8082,17,-17,-520
1622,17035,1894,2691,1776,-586,-5648,-89,422,-119
1623,17035,2413,2689,-1346,590,-1696,-325,-837,-1115
1624,17035,2317,2687,266,-1006,-4722,-89,-220,-756
1625,17035,2360,2689,176,290,-2988,98,968,-1130
1626,17035,2571,2689,-1900,2386,-3928,-441,228,1086
1627,17035,2100,2690,-1734,494,-1830,382,603,-334
1628,17035,2568,2689,798,-2116,-3600,391,62,-667
1629,17035,2212,2689,398,-320,-4858,-228,361,37
1630,17035,2309,2690,50,946,-3280,-199,-687,-859
1631,17035,2507,2692,1556,-1416,-4292,147,50,-1201
1632,17035,2349,2691,-302,1526,-5556,-147,298,-549
1633,17047,2276,2689,1952,-1206,-6256,-50,419,995
1634,17047,2274,2690,14,-146,-3466,-47,409,-231
1635,17047,2494,2689,2506,-310,-3154,66,69,-3809
1636,17047,1923,2690,1324,-980,-3838,-92,-141,-714
1637,17035,2354,2690,-308,-992,-5438,230,-255,-1351
1638,17035,2434,2691,-372,-216,-574,818,-513,-3432
1639,17047,2305,2690,-466,-76,-4564,-406,-71,-2182
1640,17035,2626,2689,-714,-942,-6538,-790,1279,1201
1641,17035,2097,2690,1298,-62,-2768,-451,374,-879
1642,17047,2399,2690,-454,-1074,-526,92,-601,-856
1643,17047,2363,2690,-190,-88,-3438,-121,-953,-470
1644,17047,2364,2690,-590,-976,-3400,-83,-642,-25
1645,17035,2183,2689,872,-148,-3788,-841,-509,1007
1646,17035,2340,2689,-1048,1662,-4262,-441,-322,-759
1647,17035,2099,2689,-2558,278,-3876,105,-623,-3090
1648,17035,2393,2689,1812,226,-4970,360,56,-623
1649,17047,2563,2691,-1708,-494,-3274,-138,612,-393
1650,17047,2062,2690,552,-858,-2816,-448,-503,-673
1651,17035,2382,2690,-1782,672,-3028,-590,-217,-865
1652,17011,2257,2690,368,-296,-2972,-8,314,-540
1653,17011,2335,2689,-658,912,-4964,-322,106,-1846
1654,17047,2371,2690,-600,-1642,-1018,718,15,-1917
1655,17047,2265,2691,-128,2168,-4808,102,775,-791
1656,17011,2383,2689,1514,-1306,-4724,-596,317,-900
1657,17011,2307,2688,-584,3336,-2612,-180,-680,-794
1658,17011,2352,2691,-190,1368,-5038,-687,65,-652
1659,17023,2389,2690,-160,-622,-6156,295,-893,-685
1660,17023,2358,2689,-3534,1338,-3650,927,1202,-520
1661,17023,2369,2690,960,-1116,-8826,395,-214,-399
1662,17023,2328,2689,-206,1074,-7066,-347,1451,-140
1663,17000,2610,2689,-2,2414,-808,-773,698,-260
1664,17000,2278,2690,434,-1896,-3048,434,-725,-644
1665,17000,2409,2689,424,1064,-4410,357,-223,-1018
1666,16988,2478,2690,640,1348,-6134,-50,-372,-325
1667,16988,2434,2689,-628,-1884,-2896,272,-426,-608
1668,16988,2428,2688,508,-1272,-2456,-28,88,-705
1669,16988,2483,2690,-1454,1434,44,-111,-559,-585
1670,17000,2452,2690,-142,622,-4776,188,246,-673
1671,17000,2475,2689,1692,-2508,-5646,356,-147,-641
1672,16976,2467,2691,64,676,-4458,369,-1131,-585
1673,16976,2461,2689,-566,178,-3978,-435,549,497
1674,16976,2374,2689,-10,708,-2038,-54,260,-879
1675,16964,2451,2689,-576,2312,-5538,301,-360,-1
1676,16964,2242,2692,-278,40,-6358,469,380,-487
1677,16964,2414,2691,504,-3108,-4526,-63,-147,-888
1678,16964,2311,2689,-1544,1460,-2848,121,178,-2704
1679,16964,2530,2689,-486,808,-2258,166,256,-635
1680,16808,2590,2689,-1272,120,204,372,-259,1272
1681,16808,2165,2690,-1662,280,-4076,986,-487,-2827
1682,16342,2432,2690,1686,788,-5006,392,412,-2052
1683,16342,2585,2690,-2842,-698,-4534,285,-274,-343
1684,15493,2286,2688,1862,474,-4418,-422,393,577
1685,14764,2612,2688,-1206,-2322,-4236,615,273,-647
1686,14764,2118,2690,-154,1094,-1610,418,117,297
1687,14070,2319,2690,-1496,-560,-4450,259,-1020,79
1688,14070,2221,2690,-4150,78,100,1225,1257,2737
1689,13783,2357,2688,-1050,-672,-5302,182,298,1508
1690,13783,2314,2690,-3048,-1596,-2054,150,-1083,3214
1691,13783,2182,2689,-3146,-316,-5728,140,663,2578
1692,14094,2574,2690,-1292,-1526,-5102,218,-801,1570
1693,14094,2236,2688,-1990,-914,-5404,137,155,2699
1694,14692,2149,2688,-882,-590,-3514,-437,178,4373
1695,14692,2229,2690,-4,-1164,-3648,-444,142,4104
1696,15218,2392,2689,-1116,-1360,-4440,-238,-1560,1343
1697,15218,2531,2691,1104,-218,-2988,-253,546,3748
1698,15756,2190,2690,2650,188,-4156,735,-242,1797
1699,15935,2613,2690,-1436,1506,-2672,179,1133,1458
1700,15935,2176,2690,784,-1120,-2784,46,968,1985
1701,16055,2336,2690,-1852,-316,714,276,-413,907
1702,16055,2275,2690,-386,-134,-7366,-661,-128,2855
1703,16174,2394,2691,258,-1274,-3458,243,-884,1240
1704,16174,2262,2691,-136,-564,-7022,63,-509,1738
1705,16342,2402,2689,-686,-732,-3354,-151,164,1081
1706,16736,2569,2689,-1130,2372,-3104,-121,939,2796
1707,16736,2301,2691,270,1004,-2684,134,393,907
1708,16964,2373,2689,-726,-1678,-3348,644,8,-240
1709,16964,2509,2690,-196,238,-2668,173,257,524
1710,16964,2286,2690,190,-1698,-9074,56,196,1095
1711,16964,2353,2688,324,1174,-992,-54,377,1081
1712,16964,2323,2690,-168,954,-2282,208,406,815
1713,16964,2574,2691,1434,1038,-6646,325,327,1526
1714,16964,2209,2690,-1304,846,-3192,185,615,-703
1715,17000,2319,2689,794,-788,-8072,-260,314,-817
1716,17000,2337,2691,22,1024,-1408,-967,-127,2987
1717,17023,2385,2688,-354,1312,-2932,-134,-661,541
1718,17023,2677,2688,118,-2024,-2458,179,428,641
1719,17023,2219,2689,-1950,1736,-614,608,-74,-281
1720,17035,2337,2689,366,1340,-4880,-477,-220,-1162
1721,17035,2405,2689,-1042,-894,-4518,-793,-325,81
1722,17035,2382,2689,-966,1356,-4024,-525,-159,329
1723,17035,2493,2690,192,3288,-8492,-138,-893,258
1724,17143,2554,2690,1814,-1274,-5276,628,-96,-1033
1725,17167,2413,2690,-1162,1428,-3386,4,-316,-417
1726,17167,2428,2689,14,-414,-5268,-564,1628,1534
1727,17155,2440,2688,500,-346,-3094,-693,-14,444
1728,17155,2504,2690,-1094,-1520,-5426,-351,-179,998
1729,17155,2458,2690,1000,828,-3030,-54,237,465
1730,17155,2522,2690,906,3398,-6668,17,34,-237
1731,17167,2430,2688,-454,-772,-5332,237,574,429
1732,17227,2459,2688,278,-1418,-2620,-76,104,606
1733,17227,2496,2687,-712,1762,34,-596,-264,-446
1734,17370,2517,2689,-2396,2440,-4124,-151,-74,-57
1735,17370,2483,2689,-236,-12,-8948,276,346,-452
1736,17382,2183,2689,-1846,-506,-3874,75,329,-1192
1737,17334,2700,2690,654,-1288,-2390,46,711,-582
1738,17334,2705,2688,-1034,2030,-2758,-167,164,-1009
1739,17334,2350,2689,448,218,-3480,-141,803,-54
1740,17334,2378,2689,136,-38,-3562,-434,698,359
1741,17370,2161,2690,810,-302,-3884,-244,-471,226
1742,17370,2594,2689,-584,-280,-3780,324,-217,-744
1743,17514,2738,2691,-212,-734,-2090,-118,-270,-199
1744,17777,2310,2689,1892,-1712,-3112,314,679,-316
1745,17777,2383,2688,2000,1316,-5980,237,672,-275
1746,17920,2541,2690,886,1028,-4252,-257,1092,-204
1747,17920,2549,2690,2494,-1346,-6806,337,1200,-2565
1748,17944,2404,2688,156,964,-2276,-173,-379,-1162
1749,17944,2529,2689,10,-2206,-1354,-193,-706,-75
1750,17944,2494,2691,-92,84,-4046,282,466,-1778
1751,17956,2536,2689,2232,3592,-4838,163,-414,-1206
1752,17956,2518,2690,124,-2748,-3324,531,-719,-1404
1753,17968,2414,2692,2566,150,-6418,198,72,-1103
1754,17968,2374,2690,110,2054,-2672,53,-569,-2179
1755,17968,2504,2689,-1258,-520,-3236,56,434,-1654
1756,17968,2493,2689,2606,-2200,-3896,111,-153,-473
1757,17968,2396,2691,242,-1348,-2728,172,-518,-1628
1758,18100,2613,2688,1230,1296,-5562,256,396,-1596
1759,18100,2269,2689,1468,-384,-4222,314,269,-1442
1760,18159,2354,2689,40,-972,-4354,440,333,-1212
1761,18159,2450,2689,1196,64,-5388,56,-509,-1018
1762,18147,2356,2689,1668,-842,-6244,114,475,-732
1763,18147,2490,2691,272,-628,-3374,130,53,-1366
1764,18100,2345,2690,1256,202,-4606,-63,-331,-900
1765,18088,2409,2690,1826,-1024,-4178,-86,-153,-1286
1766,18088,2517,2690,210,1210,-1948,-196,101,-1401
1767,18195,2342,2689,394,920,-5702,153,-191,-316
1768,18195,2413,2689,930,-1158,-6748,72,-817,409
1769,18291,2280,2690,90,616,-2626,218,892,-1283
1770,18327,2401,2690,836,-718,-2754,244,-435,-1407
1771,18327,2373,2691,162,-1252,240,289,768,-2209
1772,18602,2278,2689,1138,-1674,-5554,-325,-992,-655
1773,18602,2264,2690,290,-1744,-2942,-176,-531,-1445
1774,18960,2446,2689,1170,-156,-4374,334,-772,-1106
1775,18960,2370,2689,354,-2014,-4410,37,218,-1784
1776,19200,2277,2691,1294,-1160,-5974,31,432,-918
1777,19295,2312,2689,1368,-194,-2978,192,-445,-2226
1778,19295,2243,2689,436,692,-6140,243,793,-2268
1779,19331,2333,2691,26,430,-3808,17,-960,-2288
1780,19331,2265,2688,1798,-1682,-4602,-196,491,-3087
1781,19534,2474,2689,2336,550,-6600,247,-405,-2129
1782,19534,2575,2690,-194,-1610,-1540,-370,517,-2692
1783,19821,2504,2691,-370,80,-2068,140,-131,-1681
1784,20132,2238,2689,3218,-682,-5766,-176,-90,-1937
1785,20132,2168,2689,-270,-244,-130,231,-191,-2100
1786,20276,2593,2690,1764,1094,-3764,318,-649,-3069
1787,20276,2302,2691,3116,-562,-2118,-115,-430,1823
1788,20180,2280,2691,-826,1074,-90,363,-480,-2851
1789,20180,2545,2690,1956,-1604,-3548,-283,-71,-2515
1790,20013,2183,2691,2042,1354,-3522,-167,996,-2164
1791,19499,2215,2691,1092,-1862,-5362,82,400,-1831
1792,19499,2249,2689,1770,406,-3602,-54,-39,-2548
1793,18841,2344,2690,928,-814,-3688,240,300,-3222
1794,18841,2417,2689,1742,1432,-3076,-725,60,-2438
1795,18207,2475,2690,1834,-634,1496,-86,63,-2636
1796,17860,2338,2690,-1162,-1536,-2082,624,1127,-2321
1797,17860,2271,2689,-2660,1456,-6134,922,1432,-1937
1798,17454,2315,2688,266,176,-888,-167,-252,-319
1799,17454,2213,2689,-1482,1076,-2606,39,-1075,-443
1800,17167,2354,2688,1910,-896,-6078,-38,-401,-1451
1801,17167,2292,2689,334,1194,-4482,-170,-132,-935
1802,17131,2351,2688,-1090,-504,-3584,17,-58,-1307
1803,17143,2276,2690,-448,1078,-5122,-192,571,-1864
1804,17143,2324,2689,686,-1112,-4300,-354,-255,-434
1805,17119,2361,2690,-1836,2212,-1104,-577,-243,-66
1806,17119,2406,2690,752,-580,-2636,-360,339,-1221
1807,17035,2224,2689,-954,530,-506,356,-87,-1115
1808,17035,2365,2690,2290,262,-5742,285,1203,-1271
1809,17035,2305,2690,-834,1398,-1786,-69,-343,-458
1810,17035,2288,2690,3414,68,-7554,-299,698,-1510
1811,17035,2359,2688,-334,1154,-2834,-54,-719,-487
1812,17035,2390,2688,-1016,4102,-4948,-525,679,31
1813,17035,2434,2688,160,-578,-800,201,-614,-561
1814,17119,2291,2689,416,1260,-6520,569,-385,-744
1815,17119,2351,2690,1420,-1648,1740,-282,-159,-1
1816,17047,2390,2689,538,4248,-3870,85,-668,-437
1817,17035,2595,2690,24,892,-3812,-86,968,-915
1818,17035,2267,2690,2206,-950,-4544,318,-84,-817
1819,17047,2380,2689,-2014,3484,-1310,599,114,-502
1820,17047,2439,2691,220,-1352,-610,482,-96,-885
1821,17047,2393,2689,4214,102,-8080,-357,-198,-759
1822,17047,2707,2689,1562,2566,-7912,-1552,120,-938
1823,17047,2334,2688,-158,418,-1862,-900,504,-756
1824,17047,2462,2689,548,-962,-1402,660,-118,-128
1825,17047,2453,2690,1272,-858,296,1586,-627,-838
1826,17035,2479,2688,-848,474,-5114,482,577,-337
1827,17035,2606,2688,260,1620,-8548,-338,-106,-817
1828,17035,2249,2689,800,-1850,-4598,-166,-267,-1286
1829,17047,2286,2688,114,498,-720,-302,101,-1209
1830,17047,2568,2689,-734,726,-3500,518,-432,152
1831,17035,2304,2690,1746,-1810,-5146,686,-55,-676
1832,17035,2428,2690,-576,450,-3322,-382,-531,3055
1833,17035,2075,2689,584,-1666,-5982,-593,171,-181
1834,17035,2469,2690,206,-544,-7118,-176,65,-932
1835,17047,2572,2691,390,400,-3128,608,-55,344
1836,17047,2171,2690,-218,-400,-4340,983,466,34
1837,17047,2479,2691,-1512,1564,3162,360,-254,-1003
1838,17107,2472,2689,-984,574,228,166,-261,-564
1839,17107,2596,2687,-382,3116,-2606,-1122,857,-711
1840,17107,2297,2690,1714,124,-2852,-609,-220,1119
1841,17107,2377,2689,-2442,468,-1164,230,-512,-75
1842,17143,2421,2688,1846,1250,-6962,-147,-750,-275
1843,17143,2465,2691,378,-222,-7754,466,784,-632
1844,17143,2619,2688,-266,882,1138,-473,180,-2188
1845,17167,2394,2689,-428,766,-1496,101,-11,-1899
1846,17167,2370,2689,416,-410,-4706,263,749,-997
1847,17143,2368,2690,-1312,584,-4814,73,371,-658
1848,17143,2313,2690,1302,-582,-6152,82,-213,-181
1849,17155,2337,2689,506,-1164,-4402,27,129,-417
1850,17203,2391,2690,-1100,1174,-3018,-257,-1,-670
1851,17203,2342,2689,1926,-1168,-4512,-212,799,-638
1852,17454,2535,2690,1872,-1416,-6978,753,-468,-1316
1853,17454,2360,2689,332,-1380,-1414,402,-147,-375
1854,17813,2523,2691,1544,-54,-2136,250,-686,-853
1855,17813,2193,2689,1072,-1190,-6456,-183,-519,-794
1856,18088,2424,2689,328,-694,-6078,140,-353,-1377
1857,18494,2371,2689,-1374,780,-6522,-912,380,2336
1858,18494,2394,2691,-286,-722,-4260,-157,-255,-732
1859,19331,2347,2689,594,-796,-1374,-209,-325,-649
1860,19331,2348,2691,684,798,-2004,-360,806,-717
1861,20025,2377,2690,-1520,-102,-2776,137,-509,-2259
1862,20288,2253,2689,5104,-820,-6858,66,492,-682
1863,20288,2333,2690,706,-1726,-2908,369,-121,-2562
1864,20395,2289,2691,2652,186,-4484,130,-14,-3449
1865,20395,2339,2689,-96,-132,-1546,205,-579,-2550
1866,20312,2377,2689,14,414,-2394,-499,352,-741
1867,20312,2323,2692,824,-208,-2846,250,-293,-2636
1868,20025,2336,2688,854,634,-3980,95,666,-5097
1869,19499,2442,2689,2518,-1914,-2858,-89,107,-2067
1870,19499,2355,2690,870,-290,-3240,388,-637,-2341
1871,19140,2215,2690,2952,-104,-3888,92,-17,-2751
1872,19140,2534,2689,-644,-250,-2900,511,-703,-2969
1873,19247,2382,2690,1088,-1162,-5236,286,533,-2256
1874,19247,2343,2688,-266,2,-3272,292,-436,-2777
1875,19690,2584,2688,2292,-2006,-7670,-96,234,-3390
1876,20013,2169,2689,268,-334,-340,-170,-722,-2606
1877,20013,2314,2690,1222,-562,-6146,-260,-543,-2548
1878,20180,2417,2688,442,1190,-4070,-412,84,-4036
1879,20180,2424,2689,542,-1046,-1496,586,431,-800
1880,20802,2278,2688,190,-1680,-7260,-18,685,-2388
1881,20802,2531,2689,4592,110,-4754,56,1259,-2548
1882,21448,2250,2690,1094,672,-3524,-273,-360,-2919
1883,21974,2569,2689,2822,1094,-6562,-803,603,-4401
1884,21974,2098,2689,24,384,-124,-209,-88,-3806
1885,22356,2474,2689,2880,-2102,-6074,392,1088,-1534
1886,22356,2011,2689,1694,2988,-4698,-428,1330,-2362
1887,22751,2359,2689,4326,-2586,-4296,318,-680,-2651
1888,22966,2199,2688,2352,-1152,-6226,-263,533,-4419
1889,22966,2335,2689,1632,-1520,-5208,-519,-214,-2371
1890,23074,2378,2689,2954,3340,-5966,-208,-553,-3178
1891,23074,2368,2689,828,-310,-4240,50,342,-5330
1892,23337,2431,2689,2354,1358,-2360,-47,66,-4419
1893,23337,2295,2690,3818,-1356,-4184,117,625,-4107
1894,23500,2339,2688,2458,362,-3334,114,-179,-5209
1895,23500,2332,2690,2210,44,-4510,137,920,-4670
1896,23500,2444,2689,2710,262,-3434,-202,237,-5863
1897,23500,2413,2689,600,2472,-734,-325,-499,-5675
1898,23500,2312,2689,2768,-1440,-2332,40,510,-5471
1899,23500,2325,2689,1510,-396,-1004,172,-642,-6282
1900,23500,2284,2688,2592,-714,-5438,-131,1203,-5515
1901,23500,2423,2690,3798,-394,-2712,285,168,-5486
1902,23500,2260,2690,2684,-572,-6188,66,456,-4896
1903,23500,2413,2688,1124,2750,-3800,153,133,-4720
1904,23500,2205,2689,3716,-1490,-4738,427,-166,-6037
1905,23500,2343,2688,4184,1116,-5234,169,418,-5704
1906,23500,2517,2690,1046,1710,1696,-125,60,-6005
1907,23500,2407,2689,3340,-1268,-4558,298,399,-5171
1908,23500,2395,2689,2816,-134,-3794,108,116,-5477
1909,23500,2340,2688,1996,1048,-5614,43,-389,-4578
1910,23500,2358,2690,3480,-2644,-4310,75,593,-4894
1911,23500,2451,2690,4134,-2916,-3916,56,-287,-5630
1912,23500,2539,2691,2232,-906,-1454,179,-1175,-5489
1913,23500,2757,2689,-172,-2046,-7618,253,186,-5230
1914,23500,2098,2690,2350,-2682,-1596,518,618,-4596
1915,23500,2401,2689,1582,1670,-1950,398,765,-5610
1916,23492,2450,2688,2770,-2332,-2978,11,771,-2733
1917,23492,2295,2690,1184,2630,-3248,492,31,-3270
1918,23253,2416,2690,502,1892,562,-228,-649,-6022
1919,23253,2414,2689,3618,-712,-2450,424,-557,-5235
1920,22858,2403,2689,2022,-1444,-3090,-8,-156,-5465
1921,22380,2531,2689,3724,1510,-2382,-448,50,-5857
1922,22380,2299,2689,496,1214,-4502,53,107,-5775
1923,21986,2308,2690,4776,1530,-8716,-154,571,-5689
1924,21986,2158,2686,1470,-1726,-3702,356,183,-5468
1925,21818,2660,2688,1560,-368,-4900,905,85,-4540
1926,21818,2325,2689,904,40,-3308,224,-731,-3653
1927,21866,2157,2689,1844,226,-8198,136,-1129,-4180
1928,21890,2233,2690,1536,944,-5614,-80,-569,-6002
1929,21890,2515,2689,1070,-554,-3508,282,879,-5185
1930,21890,2140,2688,2414,-882,-4606,405,1136,-4525
1931,21890,2330,2689,1678,-2376,-3516,627,-24,-5041
1932,21806,2617,2689,2794,2562,-416,-121,50,-5860
1933,21806,2216,2691,1830,-1234,-788,221,-1684,-5772
1934,21567,2421,2690,632,-1306,-4178,-308,-162,-5300
1935,21041,2410,2690,4572,494,-4724,111,-165,-5622
1936,21041,2356,2690,2986,-660,-4076,269,-626,-4779
1937,20264,2448,2689,-198,3338,-3722,63,946,-5342
1938,20264,2424,2689,2804,3034,-3992,360,-842,-5008
1939,19702,2374,2688,924,-1484,-5130,250,170,-5014
1940,19702,2359,2689,1218,538,-900,349,-300,-5468
1941,19128,2360,2689,-932,902,-5206,-102,-242,-4611
1942,18650,2442,2689,-1524,-198,-4616,-467,1530,-3296
1943,18650,2262,2688,776,2610,-3076,747,-198,-3544
1944,18255,2440,2688,904,-936,-3306,-131,723,-2928
1945,18255,2362,2688,3306,2762,-6146,-393,53,-3317
1946,18100,2365,2689,-410,940,-4898,-89,-966,-2771
1947,18052,2351,2688,658,-1248,-1372,569,301,-2020
1948,18052,2361,2689,36,1566,-1948,872,250,-1142
1949,18040,2404,2690,1660,-2302,-5102,750,-309,-1808
1950,18040,2399,2689,1410,-30,-5880,-70,-1014,-1363
1951,18040,2612,2689,732,2454,-6642,-451,-236,-1769
1952,18040,2206,2687,-486,-1726,-2534,-276,476,-1787
1953,17920,2352,2688,134,1338,-2662,172,640,-1422
1954,17860,2449,2691,1710,-2012,-3198,634,1056,-213
1955,17860,2292,2690,584,158,-6580,814,351,-1153
1956,17621,2640,2690,754,-668,-3114,-354,733,-2506
1957,17621,2173,2691,-454,-1522,-4146,-557,-741,-1307
1958,16976,2376,2689,2322,-1240,-1984,-470,15,-1734
1959,16976,2547,2689,-1938,2664,-158,75,-801,-1233
1960,17035,2325,2689,-762,-634,-7748,334,310,-425
1961,17047,2430,2689,634,424,-3560,253,56,-417
1962,17047,2422,2688,-1718,1538,-3644,-538,43,-178
1963,17035,2387,2689,-1164,1472,-5334,-952,1453,-69
1964,17035,2533,2689,-402,-2186,-834,-435,-61,930
1965,17047,2386,2691,408,2618,-5268,708,62,-832
1966,17047,2467,2690,858,-2224,-5240,350,38,-305
1967,17047,2491,2689,1132,152,-3962,98,91,-1292
1968,17047,2362,2689,898,-408,-2834,-199,135,-33
1969,17047,2543,2689,-1740,1406,894,-1474,-661,3300
1970,17035,2437,2690,2280,-922,-4524,721,789,182
1971,17035,2413,2690,1688,1764,-5614,269,-109,-3196
1972,17035,2218,2688,-2662,1548,-2730,-435,323,412
1973,17035,2596,2688,1674,-1072,-4924,-112,345,-803
1974,17047,2282,2689,1600,-2186,-2352,46,-43,780
1975,17047,2281,2689,-216,1418,-1908,105,-80,-1534
1976,17047,2512,2691,948,-1326,-4104,-18,758,-1071
1977,17035,2358,2688,968,1326,-3454,240,-42,-994
1978,17035,2404,2687,1674,-1282,-6036,-163,295,574
1979,17047,2256,2690,1192,758,-2846,311,-147,-1619
1980,17047,2433,2689,-1756,1016,-1022,433,-535,-1218
1981,17047,2374,2691,1436,-796,-3748,-128,-8,-511
1982,17047,2381,2690,-570,38,-2360,8,-131,-588
1983,17047,2506,2689,-160,3070,-4352,-951,786,-626
1984,17047,2526,2689,2318,-1808,-5164,101,-27,-1174
1985,17047,2352,2690,-418,-378,-5906,447,761,742
1986,17035,2305,2690,1366,528,-7466,1054,-1382,-1787
1987,17047,2374,2689,130,-992,-4590,146,-506,-2715
1988,17047,2423,2690,-328,2760,-4104,-267,-43,-1510
1989,17023,2321,2689,1274,-942,-4308,-21,123,-1654
1990,17023,2406,2688,176,652,1988,68,-611,-812
1991,17047,2245,2690,-36,-440,-4732,188,1184,-876
1992,17047,2451,2688,1634,-344,-3444,33,114,-1174
1993,17035,2215,2689,-578,1362,-3032,334,-360,-3635
1994,16988,2439,2688,1378,612,-6538,-228,72,-705
1995,16988,2468,2689,182,-138,-3080,-218,-1,-1198
1996,16988,2443,2689,-222,986,-4722,179,190,-1171
1997,16988,2554,2689,806,-1516,-1560,515,387,-1195
1998,17000,2175,2689,306,2496,-2460,-251,323,-1083
1999,17000,2347,2691,1048,-2010,-3548,-44,-452,-316
2000,17023,2438,2689,1160,386,-6882,50,-150,-894
2001,17047,2373,2688,-458,2864,-1206,98,-249,-611
2002,17047,2682,2689,1106,-136,-4082,-315,-487,-131
2003,17047,2027,2690,78,486,-2966,208,-528,-455
2004,17047,2508,2689,-2208,818,-1222,-115,205,-257
2005,17035,2402,2689,2722,-2784,-5880,192,854,-246
2006,17047,2394,2691,372,1486,-3026,166,-297,-340
2007,17047,2405,2688,-230,1654,-4580,-54,805,-479
2008,17047,2439,2690,42,-2190,-2276,-134,-328,-387
2009,17035,2417,2689,62,4478,-8300,152,208,-832
2010,16976,2436,2689,984,4,-7340,-151,-722,-520
2011,16976,2348,2689,-14,-850,-2558,95,730,-372
2012,16892,2456,2689,-48,1608,-1774,-15,44,-564
2013,16426,2315,2688,46,-1490,-5402,208,403,-187
2014,16426,2663,2691,572,-266,-4490,276,-433,644
2015,15708,1988,2691,-2598,-914,-4732,-54,-166,-293
2016,15708,2519,2690,1658,-958,-7156,-366,114,-540
2017,15122,2348,2689,-2340,422,-1140,-389,-271,370
2018,15122,2137,2689,310,180,-4196,-15,539,506
2019,15062,2372,2688,-1308,-2046,-1930,515,361,1859
2020,15074,2421,2690,-2466,840,-2770,263,-163,1688
2021,15074,2665,2688,-900,62,-6890,-435,2,1302
2022,15062,2301,2689,-1210,-1530,-4886,-580,-309,1585
2023,15062,2419,2689,136,-496,-2854,-147,-439,1476
2024,14943,2536,2690,-2380,6,-458,117,-1097,-744
2025,14943,2370,2690,-162,-258,-7606,194,1285,2348
2026,14572,2643,2689,-944,-990,-250,98,-243,2575
2027,14297,2294,2689,-3884,0,-4666,114,612,1829
2028,14297,2396,2691,-1922,1934,-6472,-299,768,4443
2029,14094,2526,2689,-1210,-1710,-5420,-431,-875,3226
2030,14094,2270,2690,-862,668,-2308,531,-325,2475
2031,13783,2707,2690,-1810,-200,-3648,-31,120,2625
2032,13783,1970,2691,-2230,-450,-564,-96,-541,1850
2033,13006,2458,2688,-3290,1938,-3322,-647,-108,2654
2034,12492,2521,2690,1246,-868,-6704,-96,37,-1195
2035,12492,2421,2691,4,-206,-7770,250,-567,1072
2036,12384,2480,2691,-5498,-106,-2404,260,1146,3088
2037,12384,2531,2690,2022,-3152,-3556,166,-1183,3701
2038,12456,2256,2688,-2796,-1224,-2966,-267,-471,4491
2039,12695,2620,2688,194,228,-4312,-567,819,2884
2040,12695,2348,2687,-1266,660,-1402,-57,-87,3630
2041,13030,2441,2688,-1904,-880,-3662,-238,-106,3500
2042,13030,2605,2691,-1860,-1966,-4026,149,-116,3542
2043,13652,2370,2689,-3518,-1212,-5700,72,256,3542
2044,13652,2312,2689,-68,334,-6880,605,107,155
2045,14309,2333,2688,-1284,1482,-2740,-102,-338,3556
2046,14704,2392,2690,894,528,-3740,-431,860,3677
2047,14704,2390,2690,298,-1730,-2680,-89,-179,2460
2048,14680,2364,2690,132,1732,-4684,-467,2193,2339
2049,14680,2409,2691,532,-682,-1926,-176,-357,2041
2050,14524,2326,2690,-1596,922,-5906,4,584,1832
2051,14524,2415,2691,486,852,-5196,-99,558,238
2052,14130,2334,2690,204,-606,-3004,-8,-156,1004
2053,14094,2612,2688,-2112,4372,-3594,-186,958,1605
2054,14094,2229,2691,1248,-1702,-240,360,265,1316
2055,14118,2384,2692,-2368,1576,-3642,176,-945,2483
2056,14118,2368,2689,364,-2298,-4484,-47,533,3427
2057,14345,2349,2689,1042,-1256,-1562,456,158,2840
2058,14345,2444,2688,-498,2230,-1650,-460,2,1402
2059,14799,2402,2688,-1044,-720,-2330,366,434,1897
2060,15110,2409,2691,-542,122,-4184,860,-334,2313
2061,15110,2305,2689,-414,2946,-5026,141,-273,2436
2062,15146,2397,2688,1326,368,-5544,-442,405,1467
2063,15146,2415,2690,-1596,2286,-560,-542,132,2404
2064,15062,2446,2690,-1292,-112,-3300,-561,63,2622
2065,15062,2424,2690,1138,-250,-5286,-154,-487,2884
2066,14728,2273,2690,-2236,-932,-3078,547,-65,1408
2067,14118,2344,2691,-1450,1826,-6642,-260,577,1408
2068,14118,2482,2689,-154,-3082,-7858,-855,243,2870
2069,13640,2428,2687,288,-1266,-2088,-341,491,2221
2070,13640,2410,2689,-1926,1464,-3248,-105,-93,2071
2071,13173,2419,2690,-1854,-158,-2610,157,-432,1708
2072,13161,2389,2689,150,-1634,-4040,311,398,2722
2073,13161,2490,2689,-2972,2228,-3806,-570,-1027,3421
2074,13149,2362,2689,-2246,-2860,-2468,-80,653,3751
2075,13149,2418,2690,-1162,-1292,-3440,-645,-408,4511
2076,13030,2290,2688,-3708,452,-2754,-374,-259,4240
2077,13030,2441,2689,-3352,-286,-3774,318,-572,2681
2078,12575,2192,2690,-4370,170,-1460,72,-906,3397
2079,12253,2504,2689,-2444,16,-5256,46,663,5098
2080,12253,2328,2687,-216,1072,-3822,-561,24,2657
2081,12121,2357,2687,-3536,-1742,-1048,-561,46,4440
2082,12121,2314,2691,-2336,2258,286,835,181,804
2083,12121,2203,2690,-1382,-468,-4234,279,-760,4211
2084,12121,2418,2689,-3800,936,-5346,773,450,3562
2085,11882,2165,2690,-2574,-2076,-8258,440,-480,3323
2086,11535,2471,2688,-1622,178,-6516,421,266,6247
2087,11535,2386,2689,-3406,-10,-2738,-713,618,6097
2088,10949,2293,2689,454,-2768,-3172,-163,-109,4464
2089,10949,2357,2691,-626,-1480,-3890,105,-760,5961
2090,10603,2256,2692,1236,-1868,-6458,628,-656,3816
2091,10603,2545,2691,-522,150,-4756,724,310,4570
2092,10500,1952,2689,-5160,1710,-6194,705,-909,4072
2093,10500,2358,2687,-4086,-1906,-1066,-761,243,4667
2094,10500,2376,2689,-1074,-2156,-1630,627,-300,3760
2095,10500,2424,2690,-1980,1108,-2708,124,-341,5186
2096,10500,2447,2689,-1208,-2320,-4916,353,-97,4361
2097,10500,2228,2688,-3890,80,-4808,1118,-224,3318
2098,10500,2568,2688,-1682,-118,-6644,146,-645,7827
2099,10500,2089,2688,-1508,1434,-2198,24,314,4440
2100,10500,2428,2687,-3610,-1378,-5884,-467,1127,5039
2101,10500,2359,2689,-1356,-2072,-5912,-183,742,5434
2102,10500,2388,2690,-3056,1922,-1978,-241,-804,5071
2103,10500,2329,2690,-958,-3170,-806,-5,-744,4594
2104,10500,2247,2689,-2310,650,-4322,259,199,4438
2105,10531,2584,2690,-2386,-1566,-3284,295,1564,4175
2106,10531,2028,2689,-2764,1482,-7228,-428,876,4803
2107,10734,2410,2688,-126,-3470,-3312,-709,1184,6392
2108,10734,2271,2689,-1714,-3734,-2318,347,-217,5098
2109,10985,2195,2691,-1918,-1466,-6306,-357,-1223,4803
2110,10985,2411,2690,-5342,-30,-1768,633,-882,9754
2111,11404,2402,2689,46,-1330,-6450,-273,-353,6539
2112,11882,2476,2689,344,-1586,-3250,-641,517,5493
2113,11882,2298,2691,-274,-1240,-2430,705,145,4953
2114,12683,2684,2691,-3374,3520,-5876,292,-74,4096
2115,12683,2436,2687,-4672,-3916,-4210,808,354,5316
2116,13520,2117,2688,-2132,1546,-3900,644,-823,5372
2117,13520,2592,2688,-3408,762,-1860,-845,402,5437
2118,14178,2244,2690,-700,-962,-1298,-99,519,4912
2119,15039,2435,2690,-816,1308,22,-57,624,4573
2120,15039,2487,2689,-1834,-166,3334,-341,-1018,4320
2121,15612,2404,2691,-2520,-54,-5596,340,60,4623
2122,15612,2357,2690,876,3106,-3082,-867,612,223
2123,16222,2504,2689,-3750,2044,-4536,-780,-249,2145
2124,16222,2494,2690,32,-2938,-6134,-671,564,1590
2125,16964,2349,2691,-1068,-522,-2794,-428,136,-13
2126,16988,2357,2690,544,1684,-3358,176,18,1213
2127,16988,2390,2690,-708,784,-1202,992,-1252,-929
2128,16988,2211,2690,-1458,1656,-7008,130,-725,609
2129,16988,2634,2689,2750,-1008,-4634,-318,567,409
2130,16964,1950,2689,-670,-216,-7920,-471,351,680
2131,16964,2355,2688,1436,-2266,-2138,211,-4,-1825
2132,16964,2463,2689,-1992,1450,-3528,-415,-210,1744
2133,16988,2207,2690,844,876,-5526,-34,-290,857
2134,16988,2293,2690,-732,-406,-1110,-315,-439,-119
2135,17035,2293,2688,592,-1612,-5052,-92,-128,96
2136,17035,2270,2690,-374,1460,-4130,-628,-541,-800
2137,17035,2347,2689,368,-1740,-5638,-147,193,-131
2138,17000,2285,2689,-658,2660,-6438,8,66,96
2139,17000,2523,2690,1582,-788,-5254,98,-480,-281
2140,16964,2293,2689,-450,-1480,-3048,140,590,-210
2141,16964,2386,2689,-1130,88,-4908,-716,-71,989
2142,16964,2262,2689,-2100,772,1060,-80,-296,447
2143,16964,2578,2689,1378,884,-4654,324,-81,-113
2144,16964,1970,2690,-1062,1788,-2018,798,-773,-1422
2145,16976,2412,2690,-648,1088,-8700,169,440,99
2146,16976,2389,2689,-86,490,-5598,-102,-344,353
2147,16964,2322,2689,-40,1660,-5538,146,-261,117
2148,16964,2367,2689,268,-302,-2898,-218,120,535
2149,16976,2305,2690,710,4042,-4906,198,393,341
2150,16976,2596,2691,1636,-176,-5670,404,656,889
2151,16772,2167,2690,-802,2518,-3448,-189,542,-1239
2152,16091,2339,2690,534,-2616,-2992,-57,-503,23
2153,16091,2358,2691,-224,1314,-2722,1705,-776,-5088
2154,15170,2332,2690,-1292,-2842,-1520,602,-1106,-602
2155,15170,2429,2691,32,-940,-3534,334,-633,-25
2156,14453,2415,2690,-390,1950,-3738,257,162,730
2157,14453,2408,2690,-4436,2322,-4164,-615,-640,459
2158,13819,2432,2688,-348,-1130,-1316,-945,-538,848
2159,13305,2178,2689,-448,840,-6930,-787,-20,2575
2160,13305,2630,2690,-1806,1726,-5180,304,-1087,1355
2161,12827,2294,2690,-2316,-684,-6514,585,-398,1422
2162,12827,2636,2688,-146,-554,-5172,-344,183,2336
2163,12563,2206,2688,-2480,1026,-2860,-438,253,4004
2164,12348,2406,2688,-630,-1102,-4372,-403,678,2416
2165,12348,2480,2689,1462,-1628,-5650,-109,65,2548
2166,12109,2468,2690,1888,2064,-3148,476,-1678,2619
2167,12109,2599,2691,-4288,80,-6458,-203,-1228,854
2168,11870,2105,2690,-978,-2844,-5092,553,72,2855
2169,11870,2418,2686,-4740,1202,-6634,-503,-450,3580
2170,11870,2521,2685,-2624,-1302,-3306,-899,959,3226
2171,11870,2421,2690,-1084,-2094,-1736,-25,-579,5115
2172,11870,2476,2691,782,-332,-4436,-441,619,4744
2173,11786,2538,2690,-4466,-718,-3578,434,-468,3736
2174,11786,2340,2690,-2302,-1086,-6554,130,539,3609
2175,11619,2546,2688,1190,-996,-7492,-696,-17,4588
2176,11619,2386,2688,-3104,524,556,-60,383,3598
2177,11093,2431,2691,-1474,-70,646,201,437,3368
2178,10758,2422,2691,-406,-2952,-5356,-267,-20,5118
2179,10758,2404,2691,-3090,-266,-4986,-645,28,5080
2180,10770,2445,2690,-2946,-1074,-5502,-629,-180,7016
2181,10770,2377,2687,-2168,-1932,-2650,731,11,4467
2182,10949,2436,2689,-2146,3024,-3966,88,-290,6624
2183,10949,2369,2689,-1002,-1600,-4754,324,506,5790
2184,11224,2371,2690,112,240,-4742,137,-33,5569
2185,11224,2424,2690,-4314,590,-4250,770,641,2560
2186,11224,2370,2688,-1328,1126,-4512,205,-80,4597
2187,11284,2422,2688,-1734,-464,-3624,5,-845,5469
2188,11284,2359,2691,-2662,-34,-5658,992,-753,4974
2189,11320,2341,2690,-1098,-1672,-5048,663,415,5056
2190,11404,2366,2690,-4040,1870,-7360,98,412,4175
2191,11404,2372,2687,-1656,-1030,-562,4,151,5905
2192,11679,2501,2690,-1950,-2266,-3388,276,603,4850
2193,11679,2338,2691,-1768,-2736,-1372,27,-296,4647
2194,12169,2343,2691,-1848,-1642,-3670,305,63,5348
2195,12169,2246,2689,-1978,128,-5968,179,225,5171
2196,12958,2383,2689,-1540,-2294,-782,305,135,7229
2197,13950,2278,2689,-2690,-472,-5032,105,-233,5422
2198,13950,2350,2689,1822,-1702,-6930,-428,1603,4871
2199,15051,2451,2689,556,642,1678,502,485,3774
2200,15051,2291,2692,-518,-1192,-4600,408,-687,3394
2201,15768,2310,2694,-1622,1522,-4354,44,1851,3241
2202,15768,2355,2690,-206,-1014,-4134,262,-849,3444
2203,16354,2385,2689,-1462,2356,-5104,-105,-297,2380
2204,16976,2281,2691,528,-1242,-7146,308,101,2233
2205,16976,2324,2690,996,-2150,-3130,553,-58,2327
2206,16964,2245,2690,750,2248,-4010,24,387,1968
2207,16964,2565,2690,3194,-828,-6522,-92,199,1125
2208,16976,2164,2690,-460,502,-4784,-90,2,5655
2209,16976,2265,2688,52,550,-8146,-373,253,1190
2210,16976,2705,2689,-1170,-660,-5810,85,-684,55
2211,16964,2225,2687,-1534,2092,-2008,728,479,247
2212,16964,2428,2689,-618,-1196,-1722,224,-4,249
2213,16976,2354,2690,-1042,-840,-4558,489,415,93
2214,16976,2404,2688,1016,2210,-4368,-83,408,742
2215,16964,2665,2688,1668,-1074,-5608,78,-78,524
2216,16988,2105,2690,-648,-954,-1702,-132,-192,108
2217,16988,2413,2689,-1280,-396,-3956,21,107,426
2218,17000,2323,2689,486,272,-6846,4,1025,-1713
2219,17000,2331,2690,38,1490,-5502,-396,427,615
2220,16988,2322,2689,2326,78,-7784,-309,-439,-2382
2221,16988,2347,2690,-1808,2056,-1826,-147,-105,650
2222,17000,2559,2690,354,-876,-4036,292,-865,179
2223,17000,2074,2690,-242,-468,-826,98,-227,273
2224,17000,2438,2690,-72,-964,-2658,294,345,-1478
2225,16988,2238,2690,-362,-518,1640,-441,-150,2955
2226,16988,2381,2689,1204,538,-3324,-134,-388,1673
2227,17000,2475,2689,670,-1458,-9076,-383,-671,-2176
2228,17000,2143,2689,508,874,-4636,-277,586,438
2229,17023,2463,2689,454,-1196,-3052,120,-182,1974
2230,17023,2584,2690,-514,-1210,-2214,-312,-680,1222
2231,17023,2279,2689,1024,164,-8178,-31,253,-1050
2232,17011,2341,2690,1516,348,-9260,192,1003,-2494
2233,17011,2367,2690,514,1402,-5076,11,-560,-924
2234,17023,2340,2691,-436,-158,-6078,-99,-144,-184
2235,17023,2437,2690,64,-674,-3966,185,427,-658
2236,17011,2429,2691,-1284,1172,-5132,-199,88,-2070
2237,17000,2448,2690,1808,-1758,-8928,-395,822,-977
2238,17000,2312,2688,-984,2968,-3804,-435,-703,-1033
2239,17000,2453,2688,-752,-416,-494,-174,-65,-1478
2240,17000,2441,2689,4350,-402,-4932,573,219,-1705
2241,16964,2434,2689,-1740,3326,-4938,343,-144,-850
2242,16964,2348,2690,904,1420,-3290,269,307,-1248
2243,16964,2349,2689,-1884,840,-5728,-519,469,23
2244,16976,2517,2688,-932,2012,-7700,-638,-388,-582
2245,16976,2532,2689,-440,4734,-2908,30,-137,-835
2246,16964,2452,2688,106,-3768,-628,518,164,1022
2247,16964,2405,2688,1140,-1244,-3836,737,-801,-234
2248,16976,2493,2689,572,398,-7946,-83,-90,40
2249,16964,2517,2688,-1160,1344,-450,-360,-1,-399
2250,16964,2472,2690,2842,-754,-4446,263,946,-614
2251,16964,2506,2690,950,-1200,-5710,379,129,-113
2252,16964,2444,2690,-2706,70,-126,1215,510,-308
2253,16976,2478,2690,-260,-1300,-3286,550,374,123
2254,16976,2296,2689,1782,-506,-7344,237,98,-3172
2255,16796,2730,2690,874,102,-552,-35,598,84
2256,16533,2535,2687,-532,-378,-3636,-167,199,-255
2257,16533,2390,2689,822,-2612,-5546,469,-455,-249
2258,16186,2575,2691,494,-1056,-3266,1092,-941,361
2259,16186,2523,2688,308,-1026,-6452,276,-496,161
2260,16067,2628,2690,-1394,-1182,392,356,-480,-101
2261,16067,2536,2689,-2516,-256,-3460,256,-134,1045
2262,16055,2628,2686,-1132,-290,-5144,-1209,1440,1252
2263,16103,2650,2687,308,-1074,-2346,221,831,1384
2264,16103,2590,2688,1756,26,-4454,518,1641,1422
2265,16174,2601,2689,1124,1594,-1286,-302,-306,-826
2266,16174,2587,2690,766,-34,-4116,1205,-919,-502
2267,16270,2513,2691,-56,-1820,-7236,-550,19,341
2268,16270,2523,2689,-60,-692,-1946,-709,-1008,308
2269,16330,2480,2689,-214,1050,-4908,237,-49,-753
2270,16521,2679,2687,698,-1426,-4808,-681,-1465,1673
2271,16521,2381,2691,-2356,204,-2128,40,-334,373
2272,16581,2433,2690,852,-1628,-4274,-445,433,1319
2273,16581,2465,2689,-1052,-1836,-3386,-318,310,1823
2274,16557,2355,2688,-1530,-412,-3676,424,1581,904
2275,16557,2385,2690,-694,1208,-3790,185,1022,8
2276,16449,2363,2688,-2266,-1038,-4088,-25,1768,512
2277,16055,2438,2691,-1040,852,-3416,-115,1006,359
2278,16055,2332,2690,-204,-474,-4408,27,-859,-328
2279,15601,2299,2689,794,-58,-7032,-528,-36,4087
2280,15601,2659,2691,-488,-848,-1124,234,-1939,-60
2281,15062,2293,2690,-5618,304,-4230,237,124,830
2282,14775,2663,2690,-2200,422,-4606,1425,5,-1581
2283,14775,2460,2687,-728,-1522,-4308,166,5,414
2284,14572,2266,2688,124,666,-4914,159,-802,1950
2285,14572,2421,2689,-1296,-2154,-5838,86,-483,1166
2286,14524,2300,2690,-1128,-852,-3970,-422,-494,3406
2287,14524,2628,2688,-1182,486,-4520,-402,672,2398
2288,14142,2079,2689,622,-850,-2402,-419,901,1944
2289,13783,2455,2690,-302,310,-4818,-654,-74,-588
2290,13783,2557,2690,-1284,1050,-4072,2,422,1131
2291,13377,2204,2691,1844,-1820,-3850,256,-1782,795
2292,13377,2369,2690,-4258,1782,-3850,-264,-608,2215
2293,13197,2343,2688,-1164,436,-2626,8,-452,3282
2294,13197,2616,2687,-2044,1810,-5316,-525,1098,1290
2295,13149,2194,2688,-528,-842,-5754,-613,415,2955
2296,13149,2403,2690,-2112,568,-3350,-328,110,2917
2297,13149,2246,2690,-752,318,-8392,-1384,8,8508
2298,13329,2404,2691,-936,-1860,-2716,308,-820,2118
2299,13329,2707,2689,-836,-1264,-4424,-386,-513,5056
2300,13891,1966,2689,88,-762,-2490,-738,723,1632
2301,13891,2488,2689,-1750,-842,-2366,-202,-77,2528
2302,14572,2214,2690,-1324,-2310,-5482,-34,1237,1909
2303,15110,2341,2690,1096,1584,-946,-109,253,1095
2304,15110,2652,2689,-636,256,-5958,-34,-153,2000
2305,15170,2121,2690,2152,-428,-5378,24,1489,2201
2306,15170,2374,2691,-1700,388,-2548,194,-414,2934
2307,15122,2331,2689,-670,-1332,-5968,-50,154,1720
2308,15122,2416,2689,-1448,1786,-2128,-573,138,1384
2309,15122,2431,2689,-498,-1292,-2646,-105,409,977
2310,15146,2249,2688,-2380,1554,1160,460,-855,1596
2311,15146,2379,2691,1996,-468,-6330,-51,-783,1013
2312,15170,2342,2689,-4782,2340,126,30,-49,892
2313,15170,2519,2688,-624,-444,-3762,-105,434,1720
2314,15505,2240,2689,1412,-1646,-6704,-118,60,1894
2315,15876,2417,2689,-266,1854,-6370,-225,873,939
2316,15876,2590,2689,-2296,654,-3036,140,-855,-2262
2317,16282,2372,2690,42,-652,-4888,386,-38,1378
2318,16282,2725,2690,1960,-88,-3990,-289,-534,1573
2319,16414,2258,2689,-1266,1796,-4268,117,840,-92
2320,16414,2431,2689,480,-1304,-5558,-212,478,1384
2321,16330,2462,2689,36,94,-8162,-774,44,6412
2322,16354,2268,2689,-3132,1836,-1996,105,-1150,1558
2323,16354,2497,2689,242,-1032,-4376,282,231,641
2324,16426,2407,2691,1482,394,-5538,-276,-391,960
2325,16426,2441,2688,-2054,64,1150,-189,676,1116
2326,16426,2404,2688,-1682,556,-8294,-315,1428,1915
2327,16414,2505,2688,552,1476,-7118,17,145,2006
2328,16402,2500,2690,-1546,-544,-2682,544,424,1140
2329,16186,2338,2690,-888,1576,-5158,502,135,-7
2330,16186,2458,2690,696,-1490,-3750,372,-970,1101
2331,15935,2430,2689,366,-2322,-1298,-1839,-532,5062
2332,15935,2334,2688,-940,1324,-1078,130,472,2106
2333,15947,2464,2690,-14,-1710,-6394,-606,-233,2920
2334,15947,2507,2690,96,-2078,-8016,-109,862,524
2335,15959,2434,2688,-1214,910,-3890,105,-582,1664
2336,16055,2405,2689,-1260,-542,-3522,-73,40,1478
2337,16055,2433,2689,1954,-968,-3560,224,317,568
2338,15756,2432,2691,-3028,2118,-1344,156,-626,473
2339,15756,2337,2691,-1206,-594,-2466,-176,533,668
2340,15062,2382,2690,-1522,-744,-4506,-50,-1233,40
2341,14345,2505,2689,-596,-292,-2918,-422,863,571
2342,14345,2367,2689,150,-1144,-3792,-419,-658,1095
2343,14070,2255,2690,-4770,850,3950,279,-10,-980
2344,14070,2419,2687,-682,-1636,180,143,-17,388
2345,13939,2655,2691,38,-1730,-2374,-51,-1300,1095
2346,13939,2008,2690,-1932,-284,-4174,-99,63,1490
2347,13640,2437,2689,-752,1486,-6186,-283,660,465
2348,13257,2626,2690,642,-934,-5246,108,383,2610
2349,13257,2127,2691,-476,738,-2974,389,-506,2239
2350,13161,2670,2689,174,2076,-6978,-502,367,736
2351,13161,2517,2690,378,-2548,-2726,-170,-675,792
2352,13161,2136,2689,-2920,5962,-3332,-521,-591,1063
2353,13161,2722,2689,-3794,-2112,-2818,-703,-607,4081
2354,13185,2107,2689,1698,972,-7434,369,929,2024
2355,13066,2453,2689,-4620,-1324,-1790,-186,-976,220
2356,13066,2173,2690,-1452,-1010,-6242,-44,-26,2209
2357,12659,2550,2688,876,1436,-5024,-1045,40,1685
2358,12659,2466,2688,-3076,2056,-610,-276,-58,2537
2359,12241,2387,2689,1762,-68,-3380,537,993,2548
2360,12241,2358,2692,206,1166,-3178,766,206,2112
2361,12229,2510,2689,-1310,796,-7742,-28,-592,3070
2362,12312,2648,2687,-1948,-1972,-3486,-109,-26,4172
2363,12312,2093,2689,-1600,-250,-4756,-561,-160,4054
2364,12898,2416,2688,-2900,874,-2078,-406,698,5422
2365,12898,2418,2689,448,-162,-6326,1947,716,-664
2366,13939,2356,2691,-3254,-2296,306,876,-30,3721
2367,13939,2420,2691,-1124,560,-6052,-431,1028,4166
2368,15134,2468,2690,2114,-1980,-6886,-345,-8,3763
2369,16043,2440,2691,2288,-2544,-1586,-57,1646,450
2370,16043,2441,2690,3362,-1458,-6476,498,129,3073
2371,16533,2284,2692,864,-1342,-2182,641,127,1891
2372,16533,2464,2692,42,710,-4498,663,62,2324
2373,16916,2272,2689,-1508,-142,-3922,-190,437,1611
2374,16964,2637,2690,-1266,1312,-1894,-306,119,1676
2375,16964,2029,2691,-392,278,-5842,-80,250,1089
2376,16964,2431,2689,-308,1448,-3974,-195,31,1219
2377,16964,2207,2690,1066,828,-5084,595,-29,1086
2378,16976,2332,2690,-2214,428,-2548,201,307,462
2379,16976,2254,2689,1058,-1234,-5024,-232,-195,1305
2380,16976,2396,2690,-182,-1902,-2156,-305,600,158
2381,17000,2300,2690,-1724,1364,-1074,-331,647,379
2382,17000,2530,2690,266,-1458,-2412,195,-605,214
2383,17000,2200,2690,-1398,4268,-6564,81,-135,314
2384,17000,2457,2691,420,-2208,-4826,4,-17,1260
2385,17011,2200,2689,-1144,2844,-5614,-383,-703,1278
2386,17011,2406,2688,-832,76,-1408,-758,510,974
2387,17023,2437,2690,-194,-556,-2086,56,-744,182
2388,17011,2534,2689,-1020,308,-6968,427,790,1001
2389,17011,1981,2690,-320,2034,-3622,1,-974,565
2390,16988,2390,2690,-604,-204,-6562,-21,3,1078
2391,16988,2174,2689,-1210,-596,-1100,-726,592,677
2392,16964,2395,2689,-240,-956,-6122,-651,-8,170
2393,16964,2352,2690,466,-840,-5550,-37,222,105
2394,16964,2339,2691,60,-1702,-3464,798,-90,87
2395,16964,2265,2689,802,1808,-6996,-54,-639,238
2396,16964,2397,2689,818,-1642,-6828,-596,-531,273
